ax,ay,az,gx,gy,gz,mx,my,mz
-0.020,0.021,9.830,-0.04,+0.06,+0.04,31,-71,29
-0.020,0.021,9.830,+0.02,-0.01,+0.04,34,-74,22
-0.020,0.021,9.830,-0.04,-0.01,+0.04,34,-74,22
-0.020,0.021,9.830,+0.02,-0.01,+0.04,35,-65,23
0.057,0.021,9.830,-0.04,-0.13,-0.02,35,-65,23
-0.020,0.021,9.830,+0.02,-0.01,-0.02,32,-74,24
0.057,0.021,9.830,+0.02,+0.06,+0.04,32,-74,24
-0.020,0.021,9.830,-0.10,+0.06,-0.08,34,-70,32
-0.020,0.021,9.830,+0.02,+0.12,+0.04,34,-70,32
-0.020,0.021,9.830,-0.04,+0.12,+0.04,29,-71,27
-0.020,-0.056,9.830,-0.04,-0.07,-0.02,29,-71,27
-0.020,-0.056,9.830,-0.04,+0.12,-0.02,35,-73,27
-0.020,-0.056,9.830,-0.04,+0.12,-0.02,35,-73,27
-0.020,-0.056,9.830,-0.04,-0.01,+0.04,31,-73,29
-0.020,-0.056,9.830,+0.02,+0.06,-0.02,31,-73,29
-0.020,-0.056,9.830,+0.02,+0.12,-0.02,34,-74,26
-0.020,-0.056,9.753,+0.02,-0.01,-0.02,34,-74,26
-0.020,-0.056,9.753,-0.04,-0.01,-0.02,37,-69,31
0.057,0.021,9.830,+0.02,-0.01,-0.08,37,-69,31
0.057,0.021,9.753,+0.08,-0.07,+0.04,32,-74,30
-0.020,0.021,9.830,+0.02,-0.01,-0.02,32,-74,30
0.057,0.021,9.753,-0.04,-0.07,+0.10,30,-70,30
-0.020,0.021,9.753,+0.02,-0.07,+0.04,30,-70,30
-0.020,0.021,9.753,-0.10,+0.12,+0.10,32,-72,28
-0.020,0.021,9.830,-0.10,+0.06,-0.02,32,-72,28
-0.020,0.021,9.830,+0.08,-0.13,-0.02,33,-71,27
-0.020,0.021,9.830,-0.04,-0.01,-0.02,33,-71,27
-0.020,0.021,9.830,-0.10,+0.12,+0.04,35,-71,33
-0.020,0.021,9.907,+0.08,-0.07,+0.04,35,-71,33
-0.020,0.021,9.907,-0.04,-0.07,+0.04,32,-64,34
-0.020,0.021,9.907,+0.08,-0.13,-0.02,32,-64,34
-0.020,0.021,9.907,+0.08,-0.01,+0.04,34,-72,28
-0.020,0.021,9.907,+0.08,+0.06,+0.16,34,-72,28
-0.020,0.021,9.830,-0.16,-0.07,-0.02,32,-72,32
-0.020,0.021,9.907,-0.04,-0.01,-0.02,32,-72,32
-0.020,0.021,9.830,-0.04,+0.06,+0.04,35,-73,31
-0.020,0.021,9.830,-0.04,-0.01,-0.02,35,-73,31
-0.020,0.021,9.830,+0.02,-0.07,+0.04,33,-71,29
-0.020,-0.056,9.830,-0.04,-0.07,+0.04,33,-71,29
-0.020,-0.056,9.830,-0.10,-0.13,-0.08,33,-65,29
-0.020,-0.056,9.830,+0.02,+0.06,+0.04,33,-65,29
-0.020,-0.056,9.830,+0.08,+0.06,+0.04,37,-71,35
-0.020,-0.056,9.830,-0.04,-0.07,+0.04,37,-71,35
-0.020,-0.056,9.830,-0.04,+0.06,-0.08,36,-72,30
-0.020,-0.056,9.830,+0.02,+0.06,+0.04,36,-72,30
-0.020,-0.056,9.830,+0.21,-0.01,+0.04,30,-74,28
-0.020,-0.056,9.753,+0.08,-0.07,-0.02,30,-74,28
-0.020,-0.056,9.753,+0.02,-0.19,-0.02,32,-70,30
-0.020,-0.056,9.753,+0.02,-0.07,-0.08,32,-70,30
-0.020,-0.056,9.753,+0.08,-0.07,+0.04,31,-73,31
-0.020,-0.056,9.753,+0.02,+0.06,-0.02,31,-73,31
-0.020,0.021,9.753,+0.08,-0.01,-0.02,35,-67,31
-0.020,0.021,9.753,+0.02,+0.06,-0.02,35,-67,31
-0.020,0.021,9.830,-0.10,+0.18,+0.04,34,-76,30
-0.020,0.021,9.830,-0.04,-0.01,-0.08,34,-76,30
-0.020,0.021,9.830,-0.04,-0.07,-0.08,32,-70,32
-0.020,0.021,9.830,-0.04,+0.06,-0.08,32,-70,32
-0.020,0.021,9.830,-0.16,+0.06,-0.02,34,-76,28
-0.020,0.021,9.830,-0.04,-0.01,+0.10,34,-76,28
-0.020,0.021,9.830,+0.08,+0.06,+0.04,37,-71,29
-0.020,0.021,9.830,+0.02,+0.12,-0.02,37,-71,29
-0.020,0.021,9.830,+0.02,-0.07,+0.04,37,-71,33
-0.020,0.021,9.830,+0.02,-0.07,+0.04,37,-71,33
-0.020,0.021,9.830,-0.10,-0.01,-0.02,32,-76,28
-0.020,0.021,9.830,+0.02,-0.01,+0.10,32,-76,28
-0.020,0.021,9.830,-0.04,-0.01,+0.04,35,-73,29
-0.020,0.021,9.830,-0.10,-0.07,+0.04,35,-73,29
-0.020,0.021,9.830,+0.08,-0.07,+0.04,35,-71,33
-0.020,0.021,9.830,+0.02,-0.01,+0.04,35,-71,33
-0.020,0.021,9.830,-0.04,-0.01,-0.02,34,-66,28
-0.020,0.021,9.753,-0.04,-0.07,-0.02,34,-66,28
-0.020,0.021,9.753,+0.08,-0.07,+0.04,36,-74,28
-0.020,0.021,9.753,-0.04,-0.07,-0.08,36,-74,28
-0.020,-0.056,9.753,+0.02,-0.01,-0.02,30,-70,30
-0.020,-0.056,9.753,-0.04,+0.06,-0.02,30,-70,30
0.057,0.021,9.753,-0.04,-0.01,-0.02,32,-74,34
0.057,0.021,9.753,-0.04,-0.19,-0.02,32,-74,34
-0.020,0.021,9.753,-0.04,-0.07,+0.04,31,-75,29
0.057,0.021,9.753,-0.04,+0.12,+0.10,31,-75,29
0.057,-0.056,9.753,-0.10,-0.01,-0.08,34,-72,28
0.057,0.021,9.753,-0.04,+0.06,-0.02,34,-72,28
0.057,0.021,9.753,+0.08,-0.01,-0.08,35,-65,23
0.057,0.021,9.753,+0.08,-0.13,+0.04,35,-65,23
0.057,0.021,9.753,-0.16,-0.13,+0.10,37,-71,29
0.057,0.021,9.753,+0.08,+0.06,-0.08,37,-71,29
0.057,0.021,9.830,+0.02,-0.01,+0.10,33,-71,27
0.057,0.021,9.830,-0.04,+0.06,+0.04,33,-71,27
0.057,0.021,9.830,+0.02,+0.06,-0.02,35,-73,31
0.057,0.021,9.830,-0.10,-0.01,-0.02,35,-73,31
0.057,0.021,9.830,+0.08,+0.18,-0.02,36,-74,30
0.057,0.021,9.830,-0.04,-0.07,+0.04,36,-74,30
0.057,0.021,9.830,-0.04,+0.12,-0.02,35,-73,29
0.057,0.021,9.830,+0.08,+0.12,-0.08,35,-73,29
0.057,0.021,9.830,+0.08,-0.01,+0.04,32,-72,32
0.057,0.021,9.830,-0.04,-0.01,-0.02,32,-72,32
-0.020,0.021,9.830,+0.08,-0.01,-0.02,29,-65,31
-0.020,0.021,9.830,-0.10,-0.07,-0.08,29,-65,31
-0.020,0.021,9.830,+0.02,-0.07,-0.02,31,-73,29
0.057,0.021,9.830,-0.04,+0.06,-0.02,31,-73,29
0.057,0.021,9.830,-0.04,+0.06,-0.02,36,-76,28
0.057,0.021,9.830,-0.04,-0.13,+0.10,36,-76,28
-0.020,0.021,9.830,+0.02,-0.07,-0.02,34,-72,28
0.057,-0.056,9.830,-0.04,-0.13,-0.02,34,-72,28
-0.020,-0.056,9.830,-0.04,-0.07,-0.02,32,-72,26
-0.020,-0.056,9.830,+0.02,-0.13,-0.08,32,-72,26
-0.020,-0.056,9.830,+0.08,-0.07,+0.10,34,-72,24
-0.020,-0.056,9.753,+0.02,+0.06,-0.02,34,-72,24
-0.020,-0.056,9.753,+0.02,-0.25,+0.04,32,-74,34
-0.020,-0.056,9.753,-0.04,+0.06,-0.02,32,-74,34
-0.020,0.021,9.753,-0.04,+0.12,-0.02,30,-74,32
-0.020,0.021,9.753,-0.04,+0.12,-0.08,30,-74,32
-0.020,0.021,9.753,-0.04,-0.07,+0.10,37,-69,31
-0.020,0.021,9.753,-0.10,-0.19,+0.04,37,-69,31
-0.020,0.021,9.830,+0.08,-0.01,+0.10,36,-74,30
-0.020,0.021,9.830,+0.02,-0.07,+0.16,36,-74,30
-0.020,0.021,9.830,+0.02,+0.06,+0.04,34,-66,32
-0.020,0.021,9.830,+0.08,+0.06,-0.08,34,-66,32
-0.020,0.021,9.830,-0.10,-0.07,+0.04,29,-69,29
-0.020,0.021,9.830,-0.04,-0.07,+0.04,29,-69,29
-0.020,0.021,9.830,+0.02,-0.01,+0.04,35,-67,27
-0.020,0.021,9.830,-0.10,-0.07,+0.10,35,-67,27
-0.020,0.021,9.830,+0.02,-0.01,+0.04,34,-70,32
-0.020,0.021,9.830,+0.02,-0.07,-0.14,34,-70,32
0.057,0.021,9.830,-0.04,-0.01,+0.04,30,-72,30
0.057,0.021,9.830,+0.02,-0.01,-0.08,30,-72,30
0.057,0.021,9.830,+0.08,-0.01,-0.08,31,-73,33
0.057,0.021,9.830,+0.02,+0.12,+0.04,31,-73,33
0.057,0.021,9.830,-0.10,+0.06,-0.02,33,-71,33
0.057,0.021,9.830,+0.02,+0.12,-0.02,33,-71,33
0.057,0.021,9.830,+0.02,+0.06,-0.08,36,-72,28
0.057,0.021,9.830,+0.14,-0.01,-0.08,36,-72,28
0.057,0.021,9.830,+0.08,+0.06,+0.04,36,-72,26
0.057,0.021,9.830,+0.02,+0.06,+0.04,36,-72,26
0.057,0.021,9.830,+0.02,-0.01,-0.02,35,-69,31
0.057,0.021,9.830,-0.04,-0.01,-0.02,35,-69,31
0.057,0.021,9.830,-0.04,+0.06,+0.10,33,-73,29
-0.020,0.021,9.830,+0.02,-0.13,+0.04,33,-73,29
-0.020,0.021,9.830,-0.04,+0.12,+0.10,36,-76,34
-0.020,0.021,9.830,-0.04,+0.06,+0.10,36,-76,34
-0.020,0.021,9.830,-0.04,+0.12,-0.02,36,-72,24
0.057,0.021,9.830,+0.02,-0.01,-0.02,36,-72,24
-0.020,0.021,9.830,-0.10,-0.01,-0.08,37,-61,29
-0.020,0.021,9.830,-0.04,+0.06,-0.02,37,-61,29
-0.020,0.021,9.830,+0.02,-0.25,+0.04,31,-69,25
-0.020,0.021,9.830,-0.10,+0.06,+0.10,31,-69,25
-0.020,0.021,9.830,+0.02,-0.07,-0.02,35,-73,23
-0.020,0.021,9.830,-0.10,-0.07,-0.08,35,-73,23
-0.020,0.021,9.830,-0.04,-0.01,-0.02,34,-70,30
-0.020,0.021,9.830,-0.04,+0.06,-0.08,34,-70,30
-0.020,0.021,9.830,-0.10,-0.01,-0.02,36,-70,30
-0.020,0.021,9.830,+0.02,+0.06,+0.10,36,-70,30
0.057,0.021,9.830,-0.04,-0.07,+0.04,37,-73,27
0.057,0.021,9.830,+0.02,-0.01,-0.02,37,-73,27
0.057,0.021,9.830,-0.10,-0.01,-0.08,33,-71,29
0.057,0.021,9.830,-0.10,-0.01,+0.04,33,-71,29
0.057,0.021,9.830,-0.04,-0.07,-0.08,33,-73,27
0.057,0.021,9.830,-0.04,+0.12,+0.10,33,-73,27
0.057,0.021,9.830,-0.10,-0.01,+0.04,38,-76,28
0.057,0.021,9.830,-0.04,+0.06,+0.04,38,-76,28
0.057,0.021,9.830,+0.02,-0.07,-0.02,36,-74,28
0.057,0.021,9.830,-0.04,-0.01,-0.08,36,-74,28
0.057,0.021,9.830,-0.04,+0.12,+0.10,34,-76,30
-0.020,0.021,9.830,+0.02,+0.18,+0.04,34,-76,30
-0.020,0.021,9.830,+0.02,-0.13,+0.04,39,-75,27
-0.020,0.021,9.830,-0.04,-0.07,+0.04,39,-75,27
-0.020,0.021,9.830,+0.02,+0.06,+0.04,29,-71,23
-0.020,0.021,9.830,-0.04,+0.06,-0.02,29,-71,23
-0.020,0.021,9.830,+0.02,-0.01,+0.10,34,-72,30
-0.020,0.021,9.830,+0.08,+0.12,-0.02,34,-72,30
-0.020,0.097,9.830,+0.02,-0.07,-0.08,28,-76,28
-0.020,0.097,9.830,-0.04,-0.01,+0.04,28,-76,28
-0.020,0.021,9.830,-0.04,-0.01,-0.02,35,-75,29
0.057,0.021,9.830,+0.02,-0.07,-0.02,35,-75,29
0.057,0.021,9.830,+0.02,-0.13,+0.04,35,-71,27
0.057,0.021,9.753,+0.02,+0.06,-0.02,35,-71,27
0.057,0.021,9.830,-0.10,-0.01,-0.02,34,-72,30
0.057,0.021,9.830,+0.02,+0.12,+0.04,34,-72,30
0.057,0.021,9.830,-0.04,+0.06,-0.02,35,-77,29
0.057,0.021,9.830,-0.04,-0.01,-0.02,35,-77,29
0.057,0.021,9.830,+0.02,-0.07,-0.02,30,-72,24
0.057,0.021,9.830,-0.04,+0.06,+0.04,30,-72,24
0.057,0.021,9.830,+0.02,-0.13,-0.02,38,-78,32
0.057,0.021,9.830,-0.10,-0.01,+0.04,38,-78,32
0.057,0.021,9.830,+0.02,-0.07,-0.02,33,-67,29
0.057,0.021,9.830,+0.02,-0.01,+0.04,33,-67,29
0.057,0.021,9.830,-0.04,+0.06,-0.02,29,-71,29
-0.020,0.021,9.830,-0.04,+0.06,-0.02,29,-71,29
-0.020,0.021,9.830,+0.02,+0.12,-0.02,33,-73,29
-0.020,0.021,9.830,+0.08,+0.06,+0.04,33,-73,29
-0.020,0.021,9.830,+0.08,+0.18,-0.02,33,-69,29
-0.020,0.021,9.830,-0.10,+0.06,-0.08,33,-69,29
-0.020,0.021,9.830,+0.02,+0.06,-0.02,30,-74,26
-0.020,0.021,9.830,-0.04,-0.01,-0.14,30,-74,26
-0.020,0.021,9.830,+0.02,+0.06,+0.04,39,-69,29
-0.020,0.021,9.830,-0.04,+0.06,-0.08,39,-69,29
-0.020,0.021,9.830,+0.02,+0.12,-0.08,31,-75,27
-0.020,0.021,9.830,+0.02,+0.06,+0.10,31,-75,27
-0.020,0.021,9.830,+0.02,-0.01,-0.02,33,-73,31
-0.020,0.021,9.830,+0.02,-0.07,+0.10,33,-73,31
-0.020,-0.056,9.830,+0.14,-0.01,-0.02,37,-77,27
-0.020,0.021,9.830,-0.04,+0.06,+0.10,37,-77,27
0.057,-0.056,9.830,-0.04,+0.06,-0.08,34,-68,34
0.057,0.021,9.830,-0.04,+0.06,-0.08,34,-68,34
0.057,0.021,9.830,+0.02,+0.12,-0.14,31,-73,29
0.057,0.021,9.830,+0.08,+0.12,+0.10,31,-73,29
-0.020,0.021,9.830,+0.08,+0.12,-0.02,34,-72,26
-0.020,0.021,9.830,+0.02,-0.01,+0.04,34,-72,26
-0.020,0.021,9.830,+0.08,-0.01,-0.02,30,-70,28
-0.020,0.021,9.830,-0.04,+0.12,-0.02,30,-70,28
-0.020,0.021,9.830,-0.04,-0.01,+0.04,25,-73,31
0.057,0.021,9.830,+0.02,-0.01,-0.02,25,-73,31
-0.020,0.021,9.830,-0.04,-0.01,-0.14,33,-69,23
-0.020,0.021,9.830,+0.02,-0.07,+0.10,33,-69,23
0.057,0.021,9.830,+0.02,-0.01,+0.10,32,-72,26
0.057,0.021,9.830,-0.04,+0.12,+0.04,32,-72,26
-0.020,0.021,9.830,+0.02,-0.01,+0.04,32,-70,30
-0.020,0.021,9.830,+0.08,+0.06,+0.04,32,-70,30
-0.020,0.021,9.830,+0.02,+0.06,+0.10,37,-79,29
-0.020,0.021,9.830,+0.08,+0.12,-0.08,37,-79,29
-0.020,0.021,9.830,+0.02,+0.06,-0.02,29,-77,33
0.057,0.021,9.830,-0.04,-0.01,-0.02,29,-77,33
-0.020,0.021,9.830,-0.16,-0.07,-0.02,36,-68,28
-0.020,0.021,9.830,+0.08,+0.12,+0.04,36,-68,28
-0.020,0.021,9.830,-0.04,-0.07,-0.08,36,-78,30
-0.020,0.097,9.830,-0.04,+0.06,-0.02,36,-78,30
-0.020,0.021,9.830,+0.02,+0.06,-0.08,35,-71,27
-0.020,0.021,9.830,+0.02,-0.13,+0.04,35,-71,27
-0.020,0.021,9.830,+0.08,+0.06,-0.02,40,-72,26
-0.020,0.021,9.830,+0.02,-0.07,-0.02,40,-72,26
-0.020,0.021,9.830,+0.02,-0.07,+0.04,31,-69,29
-0.020,0.021,9.830,+0.02,-0.01,+0.04,31,-69,29
-0.020,0.021,9.830,+0.02,-0.01,+0.10,33,-77,27
-0.020,0.021,9.830,-0.04,-0.01,-0.08,33,-77,27
-0.020,0.021,9.830,-0.10,+0.06,+0.16,33,-73,29
-0.020,0.021,9.830,+0.02,+0.06,+0.04,33,-73,29
-0.020,0.021,9.830,-0.04,+0.18,+0.10,35,-71,31
-0.020,0.021,9.830,+0.02,-0.01,+0.04,35,-71,31
-0.020,0.021,9.830,-0.04,+0.12,-0.02,33,-71,35
-0.020,0.021,9.830,+0.08,-0.01,-0.02,33,-71,35
-0.020,0.021,9.830,+0.02,+0.12,-0.02,34,-70,30
-0.020,-0.056,9.830,-0.04,-0.01,-0.02,34,-70,30
-0.020,-0.056,9.830,+0.02,+0.12,-0.08,35,-73,27
-0.020,0.021,9.830,-0.04,+0.06,-0.02,35,-73,27
-0.020,0.021,9.830,+0.08,-0.07,-0.08,38,-70,24
-0.020,-0.056,9.830,-0.04,-0.07,+0.04,38,-70,24
-0.020,-0.056,9.830,+0.02,-0.07,-0.02,34,-76,30
-0.020,0.021,9.830,+0.02,+0.18,-0.02,34,-76,30
-0.020,0.021,9.830,+0.02,-0.01,-0.08,34,-66,32
-0.020,0.021,9.830,+0.08,+0.06,-0.02,34,-66,32
-0.020,0.021,9.830,+0.02,-0.01,+0.10,38,-76,30
-0.020,0.021,9.830,+0.02,-0.01,+0.04,38,-76,30
-0.020,0.021,9.830,-0.04,-0.01,-0.02,35,-71,29
-0.020,0.021,9.830,+0.02,+0.06,-0.02,35,-71,29
0.057,0.021,9.830,+0.02,+0.06,-0.02,29,-73,29
0.057,0.021,9.830,-0.04,+0.06,-0.02,29,-73,29
0.057,0.021,9.830,+0.08,-0.07,-0.02,32,-74,28
0.057,0.021,9.830,+0.08,-0.07,-0.02,32,-74,28
0.057,0.021,9.830,-0.04,-0.01,+0.04,31,-71,25
0.057,0.021,9.830,-0.04,-0.13,+0.04,31,-71,25
0.057,0.021,9.830,+0.02,-0.01,-0.02,35,-71,27
0.057,0.021,9.830,+0.14,-0.01,+0.04,35,-71,27
0.057,0.021,9.830,+0.02,+0.06,+0.04,35,-69,31
0.057,0.021,9.753,-0.10,+0.06,-0.02,35,-69,31
0.057,0.021,9.753,+0.02,-0.01,+0.10,42,-70,30
0.057,0.021,9.830,+0.08,-0.01,+0.10,42,-70,30
0.057,0.021,9.830,+0.08,+0.06,+0.10,38,-72,28
0.057,0.021,9.830,+0.08,-0.01,-0.14,38,-72,28
0.057,0.021,9.830,+0.08,-0.01,-0.02,32,-74,32
0.057,0.021,9.830,+0.02,+0.06,+0.04,32,-74,32
0.057,0.021,9.830,-0.10,-0.07,+0.10,40,-76,30
0.057,0.021,9.830,+0.08,+0.06,+0.10,40,-76,30
0.057,0.021,9.830,+0.02,-0.13,-0.02,34,-72,28
0.057,0.021,9.830,-0.04,+0.06,+0.04,34,-72,28
0.057,0.021,9.830,+0.02,+0.06,+0.04,33,-71,27
0.057,0.021,9.830,+0.08,-0.01,-0.02,33,-71,27
0.057,0.021,9.830,+0.08,-0.01,+0.04,35,-73,27
0.057,0.021,9.830,+0.08,-0.01,+0.04,35,-73,27
0.057,0.021,9.830,+0.02,-0.07,-0.02,32,-76,28
0.057,0.021,9.830,-0.04,+0.06,+0.04,32,-76,28
0.057,0.021,9.830,-0.10,-0.13,+0.04,35,-69,29
0.057,0.021,9.830,+0.02,-0.07,+0.10,35,-69,29
-0.020,0.021,9.830,+0.02,-0.13,+0.10,35,-75,33
-0.020,0.021,9.830,-0.04,-0.07,+0.04,35,-75,33
0.057,0.021,9.830,-0.04,-0.01,+0.04,34,-72,30
0.057,0.021,9.830,+0.02,+0.12,+0.10,34,-72,30
0.057,0.021,9.830,+0.02,-0.07,+0.04,35,-71,33
-0.020,-0.056,9.830,-0.04,-0.07,+0.04,35,-71,33
0.057,-0.056,9.830,-0.04,+0.12,-0.02,29,-75,27
0.057,0.021,9.830,-0.04,-0.13,+0.10,29,-75,27
0.057,0.021,9.830,+0.14,+0.12,+0.04,34,-72,32
0.057,0.021,9.830,+0.02,+0.12,-0.02,34,-72,32
-0.020,0.021,9.830,-0.04,-0.01,+0.04,32,-72,28
-0.020,0.021,9.830,-0.04,-0.07,-0.02,32,-72,28
-0.020,0.021,9.830,-0.04,+0.06,+0.10,33,-73,31
0.057,0.021,9.830,-0.04,-0.01,-0.02,33,-73,31
0.057,0.021,9.830,+0.02,-0.07,-0.02,37,-67,27
-0.020,0.021,9.830,+0.02,-0.01,-0.02,37,-67,27
0.057,0.021,9.907,-0.16,-0.13,-0.02,28,-64,34
0.057,0.021,9.907,+0.08,-0.07,-0.02,28,-64,34
0.057,0.021,9.907,+0.02,+0.12,+0.04,30,-76,26
0.057,0.021,9.907,+0.08,-0.07,+0.04,30,-76,26
0.057,0.021,9.907,-0.04,-0.07,-0.02,33,-69,31
0.057,0.021,9.907,+0.02,+0.06,-0.08,33,-69,31
0.057,0.021,9.907,-0.04,-0.01,+0.04,33,-69,31
0.057,0.097,9.907,+0.02,-0.13,-0.02,33,-69,31
0.057,0.021,9.907,-0.04,-0.07,-0.08,35,-71,33
0.057,0.021,9.830,+0.08,-0.07,-0.08,35,-71,33
0.057,0.021,9.830,+0.02,-0.01,-0.02,36,-74,32
0.057,0.021,9.830,+0.02,-0.07,+0.10,36,-74,32
0.057,0.021,9.830,-0.04,-0.01,+0.04,35,-71,29
0.057,0.021,9.830,-0.04,+0.12,-0.02,35,-71,29
0.057,0.021,9.830,+0.08,-0.07,-0.02,31,-77,25
0.057,0.021,9.830,+0.02,-0.01,+0.10,31,-77,25
0.057,0.021,9.830,+0.02,-0.01,+0.04,32,-74,32
0.057,0.021,9.907,-0.04,-0.01,-0.08,32,-74,32
0.057,0.021,9.830,-0.04,-0.19,+0.10,30,-74,28
0.057,0.021,9.907,-0.04,+0.12,-0.02,30,-74,28
0.057,0.021,9.907,+0.08,-0.13,-0.02,39,-69,25
0.057,0.021,9.907,-0.04,-0.01,+0.10,39,-69,25
0.057,0.021,9.830,+0.02,-0.01,+0.04,35,-71,31
0.057,0.021,9.830,+0.08,-0.07,+0.10,35,-71,31
0.057,0.097,9.830,-0.04,-0.07,-0.02,38,-70,28
0.057,0.021,9.830,-0.10,+0.06,-0.02,38,-70,28
0.057,0.021,9.830,+0.02,-0.01,-0.08,37,-77,31
0.057,0.021,9.830,+0.08,+0.12,-0.08,37,-77,31
0.057,0.021,9.830,+0.08,-0.01,-0.02,34,-70,30
0.057,0.021,9.830,+0.14,+0.06,-0.08,34,-70,30
0.057,0.021,9.830,+0.08,+0.06,-0.02,32,-68,30
0.057,0.021,9.830,+0.02,-0.01,+0.04,32,-68,30
0.057,0.021,9.830,+0.08,-0.07,-0.08,35,-69,29
0.057,0.021,9.830,-0.04,-0.19,-0.02,35,-69,29
0.057,0.021,9.830,-0.10,-0.07,+0.04,34,-72,30
-0.020,0.021,9.830,+0.02,+0.06,-0.02,34,-72,30
-0.020,0.021,9.830,-0.04,+0.06,-0.08,31,-71,29
-0.020,0.021,9.830,+0.08,+0.06,-0.02,31,-71,29
-0.020,0.021,9.830,+0.08,-0.01,-0.08,33,-73,27
-0.020,0.021,9.830,-0.04,-0.01,-0.02,33,-73,27
-0.020,0.021,9.830,+0.02,-0.01,+0.04,30,-76,30
-0.020,0.021,9.830,+0.14,+0.12,-0.14,30,-76,30
-0.020,0.021,9.830,-0.10,+0.06,-0.02,35,-73,35
-0.020,0.021,9.830,-0.04,-0.01,+0.04,35,-73,35
-0.020,0.021,9.830,-0.10,-0.13,+0.04,33,-73,29
-0.020,0.021,9.830,+0.02,-0.01,+0.10,33,-73,29
-0.020,0.021,9.830,+0.02,+0.06,+0.04,34,-66,32
-0.020,0.021,9.830,+0.02,+0.12,-0.02,34,-66,32
-0.020,0.021,9.830,-0.04,+0.12,-0.02,28,-72,28
-0.020,0.021,9.830,-0.04,-0.01,+0.04,28,-72,28
-0.020,0.021,9.830,-0.04,-0.01,+0.04,39,-77,33
-0.020,0.021,9.830,-0.04,+0.06,+0.04,39,-77,33
-0.020,0.021,9.830,-0.04,-0.07,-0.02,30,-70,32
0.057,0.021,9.830,+0.08,+0.06,+0.04,30,-70,32
-0.020,0.021,9.830,+0.02,-0.01,-0.02,34,-74,30
-0.020,0.021,9.830,+0.08,-0.07,-0.08,34,-74,30
0.057,0.021,9.830,+0.02,-0.13,-0.02,36,-72,32
0.057,0.021,9.830,+0.02,-0.01,-0.02,36,-72,32
0.057,0.021,9.830,-0.04,-0.13,-0.02,40,-70,30
0.057,0.021,9.830,-0.04,-0.01,-0.02,40,-70,30
0.057,0.021,9.830,+0.08,-0.01,-0.02,30,-70,26
0.057,0.021,9.830,+0.08,+0.24,+0.04,30,-70,26
0.057,0.021,9.830,+0.02,+0.12,+0.04,37,-71,29
0.057,0.021,9.830,+0.02,+0.06,-0.02,37,-71,29
0.057,0.021,9.830,+0.02,+0.06,+0.04,32,-68,34
-0.020,0.021,9.830,-0.04,-0.01,+0.10,32,-68,34
-0.020,0.021,9.830,+0.02,-0.13,+0.04,38,-74,32
-0.020,0.021,9.830,+0.02,+0.06,-0.02,38,-74,32
-0.020,0.021,9.907,+0.02,-0.01,-0.02,31,-77,25
-0.020,0.021,9.830,-0.10,-0.19,-0.02,31,-77,25
-0.020,0.021,9.830,+0.02,-0.07,-0.08,37,-69,25
-0.020,0.021,9.830,-0.04,-0.01,-0.02,37,-69,25
-0.020,0.021,9.830,+0.02,-0.01,+0.10,34,-70,24
-0.020,0.021,9.830,-0.04,-0.01,-0.02,34,-70,24
0.057,0.021,9.830,-0.04,-0.07,+0.10,32,-74,28
0.057,0.021,9.830,+0.02,-0.07,-0.02,32,-74,28
0.057,0.097,9.830,+0.02,+0.06,-0.02,38,-72,28
0.057,0.021,9.830,-0.04,-0.07,-0.02,38,-72,28
0.057,0.021,9.830,+0.02,-0.01,-0.08,31,-73,27
0.057,0.021,9.830,-0.10,+0.12,+0.04,31,-73,27
0.057,0.021,9.830,-0.04,-0.07,+0.10,32,-70,30
-0.020,0.021,9.830,-0.04,-0.01,+0.10,32,-70,30
-0.020,0.021,9.830,+0.08,-0.01,-0.02,32,-76,28
-0.020,0.021,9.830,-0.04,-0.07,-0.02,32,-76,28
-0.020,0.021,9.830,-0.04,-0.01,-0.08,31,-73,27
-0.020,0.021,9.830,+0.08,-0.07,+0.04,31,-73,27
-0.020,0.021,9.830,+0.02,+0.06,+0.04,35,-71,31
-0.020,0.021,9.830,+0.02,-0.07,-0.02,35,-71,31
-0.020,0.021,9.830,-0.04,+0.12,-0.02,33,-67,31
-0.020,0.021,9.830,+0.02,+0.12,+0.04,33,-67,31
-0.020,0.021,9.830,+0.02,+0.06,+0.04,32,-70,32
-0.020,0.021,9.830,+0.08,-0.07,-0.02,32,-70,32
-0.020,0.021,9.830,+0.02,-0.01,-0.02,34,-74,28
-0.020,0.021,9.830,+0.02,+0.06,-0.08,34,-74,28
0.057,0.021,9.830,-0.04,-0.07,-0.02,36,-66,30
0.057,0.021,9.830,+0.08,+0.06,+0.04,36,-66,30
0.057,0.021,9.830,-0.04,-0.13,+0.04,33,-73,27
0.057,0.021,9.830,+0.02,-0.07,+0.04,33,-73,27
0.057,0.021,9.830,+0.08,-0.01,+0.10,32,-72,32
0.057,0.021,9.830,+0.02,+0.06,-0.08,32,-72,32
-0.020,0.021,9.830,-0.04,-0.01,+0.04,35,-67,25
-0.020,0.021,9.830,+0.02,-0.01,+0.04,35,-67,25
-0.020,0.021,9.830,-0.04,+0.24,-0.02,34,-68,28
-0.020,0.021,9.830,-0.04,+0.18,+0.04,34,-68,28
-0.020,0.021,9.830,+0.14,+0.06,-0.08,36,-70,38
0.057,0.021,9.830,+0.08,+0.06,-0.02,36,-70,38
-0.020,0.021,9.830,+0.08,+0.06,-0.08,33,-67,27
0.057,0.021,9.830,+0.14,+0.06,+0.04,33,-67,27
0.057,0.021,9.830,+0.08,+0.18,+0.04,35,-77,25
0.057,0.021,9.830,-0.10,+0.18,-0.02,35,-77,25
0.057,0.021,9.830,-0.04,+0.06,-0.08,32,-70,26
0.057,0.021,9.830,+0.02,+0.06,+0.10,32,-70,26
-0.020,0.021,9.830,+0.02,-0.07,+0.04,30,-68,30
-0.020,0.021,9.830,-0.04,+0.06,-0.02,30,-68,30
-0.020,0.021,9.830,+0.02,+0.06,-0.02,32,-72,28
-0.020,0.021,9.830,-0.04,+0.12,-0.02,32,-72,28
-0.020,0.021,9.830,-0.04,-0.01,+0.10,31,-73,23
-0.020,0.021,9.830,+0.02,-0.13,-0.08,31,-73,23
-0.020,0.021,9.830,+0.02,+0.06,-0.02,34,-76,28
-0.020,0.021,9.830,+0.02,-0.07,-0.08,34,-76,28
-0.020,0.021,9.830,+0.08,+0.06,+0.10,35,-75,27
-0.020,0.021,9.830,-0.04,-0.13,+0.04,35,-75,27
-0.020,0.021,9.830,+0.02,+0.06,+0.04,31,-69,27
0.057,0.021,9.830,+0.08,+0.06,+0.10,31,-69,27
0.057,0.021,9.830,+0.02,+0.06,+0.04,28,-76,30
-0.020,0.021,9.830,-0.04,+0.06,+0.04,28,-76,30
0.057,0.021,9.830,+0.02,-0.01,-0.02,34,-70,28
0.057,0.021,9.830,+0.02,-0.13,-0.02,34,-70,28
0.057,0.021,9.830,+0.14,-0.01,-0.08,30,-68,24
0.057,0.021,9.830,-0.04,+0.06,+0.04,30,-68,24
0.057,0.021,9.830,+0.02,+0.06,-0.08,31,-75,25
-0.020,0.021,9.830,-0.10,-0.01,-0.02,31,-75,25
-0.020,0.021,9.753,+0.02,+0.06,+0.04,32,-74,34
-0.020,0.021,9.830,+0.02,+0.06,+0.04,32,-74,34
-0.020,0.021,9.830,+0.02,-0.01,+0.04,33,-73,27
-0.020,0.021,9.830,+0.08,-0.01,+0.04,33,-73,27
-0.020,0.021,9.830,-0.10,+0.06,+0.10,32,-70,30
-0.020,0.021,9.830,+0.02,-0.01,-0.02,32,-70,30
-0.020,0.021,9.830,+0.08,-0.01,+0.10,32,-68,28
0.057,0.021,9.830,+0.14,-0.01,-0.02,32,-68,28
0.057,0.021,9.830,+0.02,-0.13,-0.08,36,-70,32
0.057,0.021,9.830,-0.10,-0.07,-0.02,36,-70,32
-0.020,0.021,9.830,+0.02,-0.01,-0.02,33,-69,27
0.057,0.097,9.830,+0.08,-0.07,+0.04,33,-69,27
0.057,0.097,9.830,+0.02,-0.01,+0.04,34,-78,30
0.057,0.021,9.830,+0.02,+0.06,-0.02,34,-78,30
0.057,0.021,9.907,-0.10,-0.13,+0.04,36,-70,28
0.057,0.021,9.830,+0.02,-0.07,-0.02,36,-70,28
0.057,0.021,9.907,-0.10,-0.07,+0.04,33,-73,27
-0.020,0.021,9.907,+0.02,-0.07,+0.04,33,-73,27
0.057,0.021,9.907,+0.08,-0.01,+0.10,36,-70,28
0.057,0.021,9.907,+0.02,+0.06,+0.04,36,-70,28
-0.020,0.021,9.830,+0.08,+0.06,+0.10,35,-77,31
-0.020,0.021,9.830,-0.04,-0.01,+0.04,35,-77,31
-0.020,0.021,9.830,+0.02,+0.06,-0.08,32,-74,32
-0.020,0.021,9.830,+0.02,+0.06,-0.02,32,-74,32
0.057,0.021,9.830,+0.02,-0.13,+0.10,36,-72,28
0.057,0.021,9.830,+0.02,-0.01,-0.02,36,-72,28
0.057,0.021,9.753,-0.04,-0.01,-0.02,34,-72,30
0.057,0.021,9.753,-0.04,-0.07,-0.02,34,-72,30
0.057,0.021,9.830,-0.16,-0.01,-0.02,30,-72,34
0.057,0.021,9.830,-0.04,-0.01,+0.10,30,-72,34
-0.020,0.021,9.830,+0.08,+0.12,+0.16,30,-74,28
-0.020,0.021,9.830,+0.21,-0.07,+0.04,30,-74,28
-0.020,0.021,9.830,+0.02,-0.01,+0.04,30,-74,32
-0.020,0.021,9.830,-0.04,+0.18,-0.02,30,-74,32
-0.020,0.021,9.830,-0.10,-0.01,-0.02,32,-70,30
-0.020,0.021,9.830,+0.02,-0.01,-0.02,32,-70,30
0.057,0.021,9.830,-0.04,+0.06,+0.04,30,-70,30
0.057,0.021,9.830,+0.02,-0.01,-0.02,30,-70,30
0.057,0.021,9.830,-0.04,+0.06,-0.02,33,-75,33
0.057,0.021,9.830,-0.04,-0.01,-0.02,33,-75,33
0.057,0.021,9.830,-0.04,-0.01,+0.10,35,-69,27
0.057,0.021,9.830,-0.04,+0.12,-0.02,35,-69,27
0.057,0.021,9.830,+0.08,+0.12,+0.04,32,-72,28
0.057,0.021,9.830,-0.04,-0.01,-0.02,32,-72,28
0.057,-0.056,9.830,+0.08,+0.12,-0.02,31,-67,33
0.057,-0.056,9.830,+0.02,-0.13,-0.21,31,-67,33
0.057,-0.056,9.830,+0.02,+0.06,-0.14,34,-70,34
0.057,-0.056,9.830,-0.04,-0.13,+0.04,34,-70,34
0.057,-0.056,9.830,+0.02,+0.06,-0.02,32,-74,28
0.057,0.021,9.830,+0.08,+0.06,-0.02,32,-74,28
-0.020,0.021,9.830,-0.04,-0.01,+0.10,36,-70,30
-0.020,-0.056,9.753,+0.02,+0.06,-0.02,36,-70,30
0.057,0.021,9.830,-0.04,-0.01,-0.08,34,-76,30
-0.020,0.021,9.830,+0.02,+0.06,+0.04,34,-76,30
-0.020,0.021,9.830,-0.04,-0.01,+0.04,35,-75,27
-0.020,0.021,9.830,-0.10,-0.01,-0.02,35,-75,27
-0.020,0.021,9.830,-0.16,-0.01,+0.10,35,-71,31
-0.020,0.021,9.830,+0.02,+0.06,-0.02,35,-71,31
-0.020,0.021,9.830,+0.08,-0.01,-0.08,35,-67,27
-0.020,0.021,9.830,+0.02,+0.06,-0.02,35,-67,27
-0.020,0.021,9.830,+0.08,-0.01,-0.14,35,-77,31
-0.020,0.021,9.830,+0.08,+0.12,-0.02,35,-77,31
-0.020,0.021,9.830,+0.02,+0.12,-0.02,33,-77,29
-0.020,0.021,9.830,+0.02,+0.12,-0.02,33,-77,29
-0.020,0.021,9.830,-0.04,-0.01,+0.10,33,-67,29
-0.020,0.021,9.830,-0.04,-0.01,+0.04,33,-67,29
-0.020,0.021,9.830,-0.04,-0.01,-0.02,32,-72,30
-0.020,0.021,9.830,-0.10,+0.06,-0.14,32,-72,30
-0.020,0.021,9.830,-0.04,-0.13,-0.08,32,-68,28
0.057,0.021,9.830,+0.08,+0.12,-0.02,32,-68,28
0.057,0.021,9.830,+0.02,+0.06,+0.04,34,-70,32
0.057,0.021,9.830,+0.08,-0.01,+0.04,34,-70,32
0.057,0.021,9.830,-0.04,-0.07,+0.16,32,-70,24
0.057,0.021,9.830,+0.02,+0.18,-0.08,32,-70,24
-0.020,0.021,9.830,-0.04,-0.07,-0.08,34,-74,34
-0.020,0.021,9.830,-0.04,-0.01,-0.02,34,-74,34
-0.020,0.021,9.830,+0.02,-0.01,+0.04,33,-71,31
-0.020,0.021,9.830,-0.04,-0.01,+0.10,33,-71,31
-0.020,0.021,9.830,+0.02,+0.12,-0.02,36,-74,34
-0.020,0.021,9.830,-0.04,-0.01,-0.02,36,-74,34
-0.020,0.021,9.830,+0.02,-0.19,-0.02,34,-72,28
-0.020,0.021,9.830,-0.10,-0.07,-0.02,34,-72,28
-0.020,0.021,9.830,-0.04,+0.06,+0.10,35,-73,33
-0.020,0.021,9.830,+0.08,-0.01,-0.02,35,-73,33
-0.020,0.021,9.753,+0.02,-0.07,-0.02,30,-72,28
0.057,0.021,9.830,-0.04,-0.19,+0.10,30,-72,28
0.057,0.021,9.753,-0.04,-0.07,+0.04,38,-68,28
0.057,-0.056,9.753,-0.04,-0.13,+0.10,38,-68,28
0.057,-0.056,9.753,+0.02,+0.06,+0.10,40,-76,26
0.057,0.021,9.753,-0.04,-0.01,+0.10,40,-76,26
0.057,0.021,9.753,-0.04,-0.01,+0.04,37,-73,31
0.057,0.021,9.830,-0.04,+0.06,+0.16,37,-73,31
0.057,0.021,9.830,+0.08,+0.06,+0.04,37,-75,33
0.057,0.021,9.830,+0.08,-0.07,-0.02,37,-75,33
0.057,0.021,9.830,-0.04,-0.07,+0.04,37,-73,31
0.057,0.021,9.753,+0.02,-0.01,-0.02,37,-73,31
0.057,0.021,9.830,+0.02,-0.01,+0.04,30,-74,28
0.057,0.021,9.830,-0.10,-0.13,-0.02,30,-74,28
0.057,0.021,9.830,+0.02,+0.06,-0.02,36,-74,34
0.057,0.021,9.830,+0.08,-0.01,-0.08,36,-74,34
0.057,0.021,9.830,-0.10,-0.01,-0.08,36,-74,26
0.057,0.021,9.830,-0.04,-0.01,+0.04,36,-74,26
0.057,0.021,9.830,-0.04,-0.07,+0.04,37,-73,33
-0.020,0.021,9.830,+0.02,+0.06,+0.04,37,-73,33
0.057,0.021,9.830,-0.04,-0.07,+0.04,38,-74,34
0.057,0.021,9.753,-0.04,+0.06,-0.02,38,-74,34
0.057,0.021,9.753,+0.02,+0.06,+0.04,36,-66,24
0.057,0.021,9.753,+0.02,+0.06,+0.10,36,-66,24
0.057,0.021,9.753,+0.08,+0.06,-0.02,31,-75,27
-0.020,0.021,9.830,-0.04,+0.06,-0.08,31,-75,27
-0.020,0.021,9.830,+0.02,-0.07,-0.02,36,-74,30
-0.020,0.021,9.830,+0.02,-0.01,-0.02,36,-74,30
-0.020,0.021,9.830,+0.02,-0.07,+0.04,28,-72,28
-0.020,0.021,9.830,+0.02,-0.01,-0.08,28,-72,28
-0.020,0.021,9.830,-0.04,-0.01,+0.04,31,-73,29
-0.020,0.021,9.830,+0.02,-0.13,+0.04,31,-73,29
-0.020,0.021,9.830,+0.02,-0.01,-0.08,31,-73,27
-0.020,0.021,9.830,+0.02,-0.01,+0.04,31,-73,27
-0.020,0.021,9.830,+0.02,+0.12,+0.04,32,-70,26
-0.020,0.021,9.830,+0.02,-0.07,+0.04,32,-70,26
-0.020,0.021,9.830,-0.04,-0.01,-0.08,34,-72,32
-0.020,0.021,9.830,+0.08,+0.06,+0.04,34,-72,32
-0.020,0.021,9.830,-0.04,-0.13,-0.02,32,-68,36
-0.020,0.021,9.830,+0.02,+0.06,-0.02,32,-68,36
-0.020,0.021,9.830,-0.10,+0.06,-0.14,36,-72,34
-0.020,0.021,9.830,+0.02,+0.06,+0.10,36,-72,34
-0.020,0.021,9.830,+0.02,+0.06,-0.02,33,-69,31
-0.020,0.021,9.830,-0.04,-0.01,+0.10,33,-69,31
-0.020,0.021,9.753,+0.08,-0.01,+0.04,35,-67,25
-0.020,0.021,9.753,+0.02,+0.06,-0.02,35,-67,25
-0.020,0.021,9.753,+0.02,+0.06,-0.08,34,-78,34
0.057,0.021,9.753,+0.02,-0.01,-0.02,34,-78,34
0.057,0.021,9.830,-0.04,+0.06,+0.04,33,-73,29
0.057,0.021,9.830,-0.16,-0.01,+0.04,33,-73,29
0.057,0.021,9.830,+0.08,-0.01,-0.02,35,-71,31
0.057,0.021,9.830,-0.04,+0.06,-0.14,35,-71,31
0.057,0.021,9.830,-0.10,-0.01,+0.04,30,-72,30
-0.020,0.021,9.830,-0.10,+0.12,-0.08,30,-72,30
-0.020,0.021,9.830,+0.08,-0.01,+0.04,33,-73,29
-0.020,0.021,9.830,+0.02,+0.06,-0.02,33,-73,29
-0.020,0.021,9.830,-0.04,+0.06,+0.10,36,-68,32
-0.020,0.021,9.830,-0.04,-0.07,+0.04,36,-68,32
-0.020,0.021,9.830,+0.02,-0.07,-0.02,36,-74,24
-0.020,0.021,9.830,+0.02,+0.06,-0.14,36,-74,24
-0.020,0.021,9.830,-0.04,+0.12,-0.08,37,-71,25
-0.020,0.021,9.830,+0.02,+0.06,+0.04,37,-71,25
-0.020,0.021,9.830,+0.02,+0.06,-0.08,39,-75,29
-0.020,0.021,9.830,-0.04,-0.01,-0.08,39,-75,29
-0.020,0.021,9.830,+0.02,+0.06,-0.02,35,-73,25
-0.020,0.021,9.830,-0.10,+0.06,+0.04,35,-73,25
-0.020,0.021,9.830,-0.04,-0.01,+0.04,33,-71,35
-0.020,0.021,9.830,+0.02,-0.13,-0.02,33,-71,35
-0.020,0.021,9.830,-0.04,-0.01,-0.02,36,-74,32
-0.020,0.021,9.830,+0.02,+0.06,-0.02,36,-74,32
-0.020,0.021,9.830,+0.02,-0.07,+0.04,29,-73,31
-0.020,0.021,9.830,+0.02,-0.01,+0.04,29,-73,31
-0.020,-0.056,9.830,+0.08,-0.01,+0.04,32,-76,28
-0.020,0.021,9.830,+0.02,-0.19,+0.04,32,-76,28
-0.020,0.021,9.830,+0.08,+0.12,-0.02,35,-69,27
-0.020,0.021,9.830,+0.02,-0.07,-0.02,35,-69,27
-0.020,0.021,9.830,-0.04,-0.07,+0.04,37,-75,31
-0.020,0.021,9.830,+0.08,-0.01,+0.04,37,-75,31
-0.020,0.021,9.830,-0.04,+0.06,-0.08,31,-71,33
0.057,0.021,9.830,-0.04,+0.06,+0.04,31,-71,33
0.057,0.021,9.830,-0.04,+0.06,+0.04,29,-71,31
-0.020,0.021,9.830,-0.04,-0.01,-0.02,29,-71,31
0.057,0.021,9.830,+0.02,+0.06,-0.08,34,-70,28
0.057,0.021,9.830,-0.04,+0.06,-0.02,34,-70,28
0.057,0.021,9.830,-0.04,-0.01,+0.04,35,-71,35
0.057,-0.056,9.830,+0.02,-0.01,+0.04,35,-71,35
0.057,-0.056,9.753,+0.08,+0.06,-0.08,35,-71,33
0.057,-0.056,9.753,-0.04,-0.01,-0.02,35,-71,33
0.057,-0.056,9.753,+0.02,-0.07,+0.04,33,-73,27
0.057,-0.056,9.753,-0.04,+0.12,-0.08,33,-73,27
0.057,-0.056,9.753,+0.08,-0.01,+0.10,34,-68,30
0.057,0.021,9.753,+0.02,+0.06,+0.04,34,-68,30
0.057,0.021,9.830,+0.02,-0.07,-0.02,34,-70,28
0.057,0.021,9.830,-0.04,+0.18,-0.08,34,-70,28
-0.020,0.021,9.830,+0.02,+0.12,-0.08,35,-75,31
-0.020,0.021,9.830,+0.08,+0.06,+0.04,35,-75,31
0.057,0.021,9.830,-0.04,+0.12,-0.02,29,-75,33
0.057,0.021,9.830,+0.02,+0.12,+0.04,29,-75,33
0.057,0.097,9.830,+0.02,-0.01,-0.02,36,-72,26
0.057,0.097,9.830,-0.04,+0.06,-0.08,36,-72,26
0.057,0.021,9.830,+0.02,+0.12,-0.02,32,-72,30
0.057,0.021,9.830,+0.08,-0.07,+0.04,32,-72,30
0.057,0.021,9.830,-0.10,-0.01,-0.02,33,-71,31
0.057,0.021,9.830,-0.04,-0.01,-0.02,33,-71,31
0.057,0.021,9.830,+0.02,-0.01,+0.04,31,-77,23
-0.020,0.021,9.830,-0.04,+0.06,-0.08,31,-77,23
0.057,0.021,9.830,+0.02,-0.07,+0.04,34,-72,28
0.057,0.021,9.830,+0.02,+0.06,-0.08,34,-72,28
0.057,0.021,9.830,+0.08,-0.01,-0.02,33,-73,25
-0.020,0.021,9.830,+0.02,+0.12,-0.02,33,-73,25
0.057,0.021,9.830,-0.04,+0.06,-0.08,37,-71,27
-0.020,0.021,9.830,+0.02,+0.06,-0.02,37,-71,27
0.057,0.021,9.830,+0.02,-0.13,+0.04,30,-74,30
0.057,0.021,9.830,+0.02,-0.07,-0.02,30,-74,30
-0.020,0.021,9.830,+0.02,+0.06,+0.04,37,-73,33
-0.020,0.021,9.830,-0.10,-0.07,+0.16,37,-73,33
-0.020,0.021,9.830,-0.16,-0.01,+0.04,30,-74,28
-0.020,0.021,9.830,-0.10,-0.01,-0.02,30,-74,28
-0.020,0.021,9.830,+0.02,-0.13,-0.02,32,-70,28
-0.020,0.021,9.830,-0.04,-0.01,+0.04,32,-70,28
-0.020,0.021,9.830,-0.04,-0.07,-0.02,33,-71,29
-0.020,0.021,9.830,-0.04,-0.01,+0.10,33,-71,29
-0.020,0.021,9.830,-0.04,+0.06,+0.10,31,-69,35
-0.020,0.021,9.830,+0.02,-0.01,+0.04,31,-69,35
-0.020,0.021,9.830,-0.04,-0.01,+0.04,33,-71,31
-0.020,-0.056,9.830,-0.10,-0.07,-0.02,33,-71,31
-0.020,-0.056,9.830,+0.02,-0.07,-0.02,31,-69,33
-0.020,0.021,9.830,+0.02,-0.07,-0.14,31,-69,33
-0.020,-0.056,9.830,-0.04,+0.12,-0.02,35,-77,31
-0.020,-0.056,9.830,+0.08,-0.01,+0.04,35,-77,31
-0.020,-0.056,9.830,-0.04,-0.13,-0.02,37,-71,29
-0.020,-0.056,9.830,+0.08,-0.07,-0.08,37,-71,29
-0.020,0.021,9.830,+0.08,-0.01,+0.04,32,-68,30
-0.020,0.021,9.753,-0.04,-0.07,+0.10,32,-68,30
-0.020,0.021,9.753,-0.04,-0.13,-0.02,40,-78,30
-0.020,0.021,9.753,-0.10,+0.06,-0.02,40,-78,30
-0.020,0.021,9.753,+0.02,-0.01,-0.08,40,-74,34
-0.020,0.021,9.753,-0.04,+0.12,-0.02,40,-74,34
-0.020,0.021,9.830,+0.02,-0.01,-0.02,35,-71,27
-0.020,0.021,9.830,+0.02,-0.01,+0.04,35,-71,27
-0.020,0.021,9.830,+0.02,-0.01,+0.04,34,-72,26
0.057,0.021,9.830,+0.08,+0.12,+0.10,34,-72,26
0.057,0.021,9.830,-0.04,+0.06,-0.02,37,-73,23
0.057,0.021,9.830,-0.04,-0.01,-0.02,37,-73,23
-0.020,0.021,9.830,+0.02,-0.01,-0.02,29,-71,31
-0.020,-0.056,9.830,+0.02,+0.06,+0.04,29,-71,31
0.057,0.021,9.830,+0.02,-0.07,+0.04,35,-69,27
-0.020,0.021,9.830,-0.04,-0.01,+0.04,35,-69,27
-0.020,0.021,9.830,-0.04,+0.06,-0.02,32,-74,26
-0.020,0.021,9.753,+0.08,-0.13,+0.10,32,-74,26
-0.020,0.021,9.753,-0.04,+0.06,-0.14,36,-72,26
-0.020,0.021,9.830,+0.02,+0.06,+0.04,36,-72,26
0.057,0.021,9.830,+0.08,-0.07,+0.10,33,-75,29
0.057,0.021,9.830,-0.10,+0.06,-0.02,33,-75,29
0.057,0.021,9.830,-0.04,+0.06,-0.02,32,-70,28
0.057,0.021,9.830,+0.08,+0.06,-0.02,32,-70,28
-0.020,0.021,9.830,-0.04,-0.07,+0.04,36,-70,28
-0.020,0.021,9.830,-0.04,+0.12,+0.04,36,-70,28
-0.020,-0.056,9.830,-0.04,+0.12,+0.04,35,-67,25
-0.020,-0.056,9.830,+0.02,-0.07,-0.08,35,-67,25
-0.020,0.021,9.830,+0.02,-0.07,+0.04,35,-69,27
-0.020,-0.056,9.830,+0.02,-0.07,-0.02,35,-69,27
-0.020,-0.056,9.830,-0.10,-0.01,+0.10,34,-72,28
-0.020,0.021,9.830,+0.02,-0.13,-0.02,34,-72,28
0.057,-0.056,9.830,-0.04,-0.07,-0.02,35,-71,31
0.057,-0.056,9.830,+0.08,-0.07,-0.02,35,-71,31
0.057,-0.056,9.830,+0.08,-0.07,-0.02,37,-75,27
0.057,-0.056,9.830,-0.04,-0.01,-0.02,37,-75,27
0.057,-0.056,9.830,+0.02,+0.06,-0.08,34,-76,28
0.057,0.021,9.830,-0.04,+0.06,-0.02,34,-76,28
0.057,0.021,9.830,+0.02,+0.12,-0.02,34,-76,28
0.057,0.021,9.830,+0.02,-0.07,+0.10,34,-76,28
0.057,0.021,9.830,-0.04,-0.01,-0.02,37,-71,33
0.057,0.021,9.830,+0.02,+0.12,+0.04,37,-71,33
0.057,0.021,9.830,-0.04,-0.01,-0.02,35,-71,31
0.057,0.021,9.830,+0.08,-0.13,-0.02,35,-71,31
-0.020,0.021,9.830,+0.02,-0.07,+0.10,32,-74,34
-0.020,0.021,9.753,+0.02,-0.19,-0.02,32,-74,34
-0.020,0.021,9.753,-0.04,+0.06,+0.10,33,-75,33
-0.020,0.021,9.753,+0.02,+0.06,+0.04,33,-75,33
-0.020,0.021,9.753,+0.08,-0.01,+0.04,33,-71,29
-0.020,-0.056,9.753,-0.16,+0.06,+0.04,33,-71,29
-0.020,0.021,9.753,+0.08,+0.06,+0.04,35,-71,29
-0.020,-0.056,9.753,-0.04,+0.12,+0.04,35,-71,29
-0.020,0.021,9.753,+0.02,-0.01,+0.04,30,-74,30
0.057,0.021,9.753,-0.04,+0.12,-0.02,30,-74,30
0.057,0.021,9.753,+0.08,-0.07,+0.04,34,-72,30
0.057,0.021,9.753,+0.08,+0.06,+0.04,34,-72,30
-0.020,0.021,9.753,+0.08,+0.06,+0.04,33,-75,27
0.057,0.021,9.753,-0.10,+0.06,-0.08,33,-75,27
0.057,0.021,9.753,+0.02,-0.07,-0.08,34,-74,32
0.057,0.021,9.753,+0.08,-0.01,+0.04,34,-74,32
0.057,0.021,9.830,+0.02,+0.06,-0.08,35,-75,27
0.057,0.021,9.830,-0.04,+0.06,+0.04,35,-75,27
0.057,0.021,9.830,+0.08,-0.07,-0.08,37,-71,31
0.057,0.021,9.830,+0.02,+0.06,+0.04,37,-71,31
0.057,0.021,9.830,-0.04,-0.07,-0.02,33,-73,27
0.057,0.021,9.830,+0.02,+0.06,+0.16,33,-73,27
0.057,0.021,9.830,-0.04,-0.07,-0.08,34,-70,30
0.057,0.021,9.830,+0.08,-0.07,+0.04,34,-70,30
0.057,0.021,9.830,+0.02,-0.07,+0.04,35,-71,25
0.057,0.021,9.830,-0.04,-0.01,-0.08,35,-71,25
0.057,0.021,9.830,+0.02,+0.12,+0.10,34,-72,28
0.057,-0.056,9.830,-0.10,+0.06,-0.02,34,-72,28
0.057,-0.056,9.830,-0.10,+0.06,-0.08,36,-72,28
0.057,-0.056,9.830,-0.04,+0.06,+0.04,36,-72,28
0.057,0.021,9.830,+0.02,-0.07,+0.04,37,-73,29
0.057,0.021,9.830,-0.04,+0.06,+0.10,37,-73,29
0.057,0.021,9.830,+0.02,-0.01,+0.04,32,-68,30
-0.020,0.021,9.830,+0.02,+0.12,-0.02,32,-68,30
-0.020,0.021,9.830,+0.02,+0.06,-0.02,33,-69,31
-0.020,0.021,9.830,+0.02,-0.07,-0.02,33,-69,31
-0.020,0.021,9.830,-0.10,-0.01,-0.02,32,-70,30
-0.020,0.021,9.830,+0.14,+0.06,-0.02,32,-70,30
-0.020,0.021,9.830,+0.02,+0.06,-0.02,34,-74,26
-0.020,0.021,9.830,-0.04,-0.01,+0.04,34,-74,26
-0.020,0.021,9.830,+0.02,-0.13,-0.02,30,-78,34
0.057,0.021,9.830,+0.08,-0.01,+0.04,30,-78,34
0.057,0.021,9.830,+0.08,+0.12,-0.02,39,-71,29
0.057,0.021,9.830,+0.02,+0.06,-0.02,39,-71,29
0.057,0.021,9.830,-0.10,-0.01,-0.02,33,-69,31
0.057,0.021,9.907,-0.04,-0.07,+0.04,33,-69,31
-0.020,-0.056,9.907,+0.02,+0.06,-0.02,32,-68,28
-0.020,0.021,9.907,-0.04,-0.01,-0.08,32,-68,28
0.057,-0.056,9.830,+0.02,+0.12,+0.04,31,-73,31
0.057,0.021,9.830,+0.02,-0.01,-0.02,31,-73,31
-0.020,0.021,9.830,+0.02,-0.01,-0.02,39,-75,29
-0.020,0.021,9.830,+0.14,-0.01,-0.02,39,-75,29
0.057,0.021,9.830,+0.02,+0.12,-0.02,36,-70,36
0.057,0.021,9.830,-0.04,-0.01,+0.04,36,-70,36
0.057,0.021,9.830,-0.04,+0.06,+0.04,36,-70,28
0.057,0.021,9.753,+0.08,-0.01,+0.04,36,-70,28
0.057,0.021,9.830,-0.04,-0.01,-0.14,31,-71,33
0.057,0.021,9.830,+0.08,-0.13,+0.04,31,-71,33
0.057,0.021,9.830,+0.14,+0.06,-0.08,33,-71,33
0.057,0.021,9.830,-0.04,-0.07,+0.10,33,-71,33
0.057,0.021,9.830,+0.08,-0.01,+0.10,32,-70,32
0.057,0.021,9.830,+0.02,-0.01,-0.08,32,-70,32
0.057,0.021,9.830,+0.08,+0.12,+0.04,34,-74,32
0.057,0.021,9.830,+0.02,+0.06,+0.04,34,-74,32
0.057,0.021,9.830,-0.04,-0.01,-0.02,35,-69,31
0.057,0.021,9.830,-0.10,-0.07,+0.04,35,-69,31
0.057,0.021,9.830,-0.10,-0.01,-0.02,38,-70,30
-0.020,0.021,9.830,-0.10,-0.01,-0.02,38,-70,30
-0.020,0.021,9.830,-0.04,-0.01,+0.04,28,-72,30
-0.020,0.021,9.830,+0.02,-0.01,+0.04,28,-72,30
-0.020,0.021,9.830,+0.02,+0.06,-0.02,34,-68,30
-0.020,0.021,9.830,+0.02,-0.07,-0.14,34,-68,30
-0.020,0.021,9.830,-0.04,+0.06,-0.02,36,-74,30
-0.020,0.021,9.830,-0.04,-0.01,+0.04,36,-74,30
-0.020,0.021,9.753,+0.02,-0.01,-0.02,32,-74,30
-0.020,0.021,9.830,+0.02,+0.06,-0.02,32,-74,30
-0.020,0.021,9.830,+0.02,-0.07,+0.04,35,-73,27
-0.020,0.021,9.830,+0.08,-0.01,-0.02,35,-73,27
0.057,0.021,9.830,+0.02,+0.06,+0.04,36,-74,28
-0.020,0.021,9.830,+0.14,+0.06,+0.04,36,-74,28
0.057,0.021,9.830,+0.02,-0.01,-0.02,36,-74,28
0.057,0.021,9.830,+0.02,+0.12,-0.02,36,-74,28
0.057,0.021,9.830,+0.02,-0.07,-0.02,34,-72,28
0.057,0.021,9.830,-0.10,-0.07,+0.10,34,-72,28
0.057,0.021,9.830,-0.04,-0.07,-0.02,33,-77,27
0.057,0.021,9.830,-0.04,-0.13,-0.02,33,-77,27
0.057,0.021,9.830,+0.08,+0.06,+0.04,38,-68,28
0.057,0.021,9.830,-0.04,-0.13,+0.10,38,-68,28
-0.020,0.021,9.830,+0.02,-0.07,-0.02,33,-77,27
-0.020,0.021,9.753,-0.04,+0.12,-0.08,33,-77,27
-0.020,0.021,9.753,+0.02,+0.06,-0.02,32,-70,28
-0.020,0.021,9.830,+0.02,-0.07,-0.21,32,-70,28
0.057,-0.056,9.830,+0.02,-0.01,-0.02,32,-76,30
-0.020,-0.056,9.830,-0.10,+0.06,-0.02,32,-76,30
-0.020,-0.056,9.830,+0.02,+0.06,-0.02,37,-71,29
-0.020,-0.056,9.830,+0.02,-0.01,-0.02,37,-71,29
-0.020,-0.056,9.830,+0.02,-0.13,+0.04,37,-73,29
0.057,-0.056,9.830,-0.04,-0.01,+0.04,37,-73,29
0.057,-0.056,9.830,+0.14,+0.06,+0.10,29,-73,27
0.057,-0.056,9.830,+0.08,+0.12,+0.04,29,-73,27
0.057,-0.056,9.830,+0.08,+0.12,-0.02,30,-70,30
0.057,-0.056,9.830,+0.02,-0.07,-0.08,30,-70,30
0.057,0.021,9.830,+0.08,+0.12,+0.10,31,-69,27
0.057,0.021,9.830,+0.08,-0.07,-0.02,31,-69,27
0.057,0.021,9.830,+0.02,-0.01,-0.02,32,-74,28
0.057,0.021,9.830,+0.08,-0.07,+0.04,32,-74,28
-0.020,0.021,9.830,-0.10,-0.07,-0.14,33,-75,29
-0.020,0.021,9.830,-0.04,-0.01,+0.04,33,-75,29
-0.020,0.021,9.830,-0.04,-0.07,-0.08,37,-75,29
0.057,0.021,9.830,+0.02,+0.06,-0.08,37,-75,29
0.057,0.021,9.830,-0.04,-0.01,+0.04,32,-68,26
0.057,0.021,9.830,-0.04,+0.06,+0.04,32,-68,26
0.057,0.021,9.830,+0.02,-0.01,-0.08,32,-74,28
0.057,-0.056,9.830,-0.04,-0.01,-0.14,32,-74,28
0.057,-0.056,9.830,-0.04,-0.01,+0.04,33,-69,25
0.057,0.021,9.753,+0.02,+0.12,-0.02,33,-69,25
-0.020,0.021,9.830,-0.04,-0.01,-0.02,36,-70,30
-0.020,0.021,9.830,+0.08,+0.06,+0.04,36,-70,30
-0.020,0.021,9.830,+0.02,-0.07,-0.02,28,-74,30
-0.020,0.021,9.830,-0.04,-0.01,+0.10,28,-74,30
-0.020,0.021,9.830,-0.16,+0.06,-0.08,36,-74,28
-0.020,0.021,9.830,-0.04,-0.01,-0.02,36,-74,28
-0.020,0.021,9.830,+0.08,-0.07,+0.10,31,-71,31
-0.020,0.021,9.830,+0.02,-0.01,+0.10,31,-71,31
-0.020,0.021,9.753,+0.08,-0.01,-0.02,36,-70,24
-0.020,0.021,9.753,+0.02,+0.12,+0.10,36,-70,24
-0.020,0.021,9.753,+0.08,+0.06,+0.04,33,-69,31
-0.020,0.021,9.753,+0.08,+0.06,+0.04,33,-69,31
-0.020,-0.056,9.753,+0.02,+0.12,+0.04,34,-68,32
-0.020,-0.056,9.753,+0.08,+0.06,+0.10,34,-68,32
-0.020,-0.056,9.753,+0.02,+0.12,-0.02,32,-72,30
-0.020,0.021,9.753,+0.02,-0.07,-0.08,32,-72,30
-0.020,0.021,9.753,+0.02,+0.06,-0.08,37,-73,33
-0.020,0.021,9.753,-0.04,+0.06,-0.14,37,-73,33
-0.020,0.021,9.830,+0.08,-0.01,+0.04,36,-72,30
-0.020,0.021,9.830,+0.08,+0.12,-0.02,36,-72,30
-0.020,0.021,9.830,-0.04,-0.07,-0.02,31,-73,29
-0.020,0.021,9.830,+0.08,-0.07,+0.04,31,-73,29
-0.020,0.021,9.830,+0.08,+0.12,+0.10,33,-67,31
-0.020,0.021,9.830,+0.02,-0.01,-0.08,33,-67,31
0.057,0.021,9.830,-0.04,-0.01,-0.02,36,-72,28
0.057,0.021,9.830,-0.10,-0.07,+0.10,36,-72,28
0.057,0.021,9.830,-0.04,-0.07,+0.04,37,-71,29
-0.020,0.021,9.830,+0.02,-0.01,-0.08,37,-71,29
-0.020,0.021,9.830,-0.04,-0.01,-0.08,34,-70,32
-0.020,0.021,9.830,+0.02,-0.01,+0.04,34,-70,32
-0.020,0.021,9.830,+0.02,+0.06,-0.02,34,-72,26
-0.020,0.021,9.830,+0.02,-0.07,+0.04,34,-72,26
-0.020,0.021,9.830,-0.04,-0.01,-0.02,33,-69,27
-0.020,0.021,9.830,+0.08,-0.01,-0.02,33,-69,27
-0.020,0.021,9.830,-0.04,-0.19,+0.10,36,-74,28
-0.020,0.021,9.830,-0.04,-0.07,-0.08,36,-74,28
-0.020,0.021,9.830,-0.04,-0.13,-0.02,39,-71,27
-0.020,0.021,9.830,-0.10,-0.01,+0.04,39,-71,27
-0.020,0.021,9.753,+0.02,-0.01,-0.08,35,-69,27
-0.020,0.021,9.830,-0.04,+0.06,-0.02,35,-69,27
-0.020,0.021,9.830,+0.08,-0.01,+0.04,34,-72,28
-0.020,0.021,9.830,-0.10,-0.13,-0.02,34,-72,28
-0.020,0.021,9.830,-0.04,-0.01,+0.04,33,-73,29
-0.020,0.021,9.830,+0.08,-0.01,+0.10,33,-73,29
-0.020,0.021,9.830,-0.04,-0.01,-0.02,35,-71,31
-0.020,0.021,9.830,+0.02,-0.07,+0.10,35,-71,31
-0.020,0.021,9.830,+0.02,-0.13,-0.08,35,-69,29
-0.020,0.021,9.830,-0.04,+0.06,-0.02,35,-69,29
-0.020,0.021,9.830,-0.04,-0.01,+0.04,35,-73,33
-0.020,0.021,9.830,-0.10,+0.06,-0.02,35,-73,33
-0.020,0.021,9.830,+0.08,-0.07,-0.02,36,-72,28
-0.020,0.021,9.830,+0.02,-0.01,-0.14,36,-72,28
-0.020,0.021,9.830,+0.08,+0.06,-0.02,39,-67,31
-0.020,0.021,9.830,-0.04,+0.12,-0.02,39,-67,31
-0.020,0.021,9.830,-0.04,+0.06,-0.02,34,-72,26
-0.020,0.021,9.830,-0.04,+0.12,-0.02,34,-72,26
-0.020,0.021,9.830,+0.08,-0.07,-0.02,35,-75,25
-0.020,0.021,9.830,+0.08,-0.13,-0.08,35,-75,25
-0.020,0.021,9.830,-0.04,+0.12,+0.04,33,-75,27
-0.020,0.021,9.830,+0.08,+0.06,-0.02,33,-75,27
-0.020,0.021,9.830,+0.02,-0.01,-0.02,31,-73,31
0.057,0.021,9.830,+0.08,-0.07,-0.02,31,-73,31
0.057,0.021,9.830,-0.10,-0.07,-0.02,35,-73,31
0.057,0.021,9.753,+0.14,-0.13,+0.04,35,-73,31
0.057,0.021,9.753,-0.04,-0.01,-0.02,40,-70,34
0.057,0.021,9.753,+0.08,-0.07,+0.04,40,-70,34
0.057,0.021,9.753,-0.04,+0.06,-0.02,38,-76,32
0.057,0.021,9.753,-0.10,+0.06,+0.04,38,-76,32
0.057,-0.056,9.753,-0.04,-0.07,-0.08,33,-71,31
0.057,0.021,9.753,+0.02,-0.01,-0.08,33,-71,31
-0.020,0.021,9.830,+0.02,-0.01,+0.04,32,-74,36
-0.020,0.021,9.753,-0.04,-0.25,+0.10,32,-74,36
-0.020,-0.056,9.830,+0.08,-0.07,+0.04,34,-72,24
-0.020,0.021,9.830,-0.10,-0.07,-0.14,34,-72,24
-0.020,0.021,9.830,+0.02,-0.01,-0.02,34,-72,32
-0.020,0.021,9.830,+0.02,-0.07,-0.02,34,-72,32
-0.020,0.021,9.830,+0.02,-0.01,-0.02,32,-68,24
-0.020,0.021,9.830,+0.02,-0.07,-0.02,32,-68,24
-0.020,0.021,9.830,+0.08,+0.06,-0.08,31,-73,27
-0.020,0.021,9.830,-0.04,-0.01,-0.02,31,-73,27
-0.020,0.021,9.907,+0.02,+0.06,-0.02,40,-70,30
-0.020,0.021,9.907,-0.04,+0.12,+0.04,40,-70,30
-0.020,0.021,9.907,+0.14,-0.01,+0.04,33,-71,27
-0.020,0.021,9.830,-0.04,+0.06,-0.08,33,-71,27
-0.020,0.021,9.830,+0.02,-0.01,-0.02,34,-72,30
-0.020,0.021,9.830,+0.02,-0.01,+0.04,34,-72,30
-0.020,0.021,9.830,+0.02,-0.07,+0.04,33,-71,29
-0.020,0.021,9.830,-0.16,+0.12,-0.02,33,-71,29
-0.020,0.021,9.830,-0.04,+0.12,-0.02,31,-75,27
-0.020,0.021,9.830,+0.08,+0.06,+0.04,31,-75,27
-0.020,-0.056,9.830,-0.04,-0.01,-0.02,32,-70,28
-0.020,-0.056,9.830,+0.21,+0.06,+0.04,32,-70,28
-0.020,0.021,9.830,+0.02,+0.06,+0.04,37,-67,31
-0.020,-0.056,9.830,+0.02,+0.12,-0.14,37,-67,31
-0.020,-0.056,9.830,+0.02,-0.07,+0.04,32,-76,26
-0.020,-0.056,9.830,+0.02,-0.07,+0.04,32,-76,26
-0.020,-0.056,9.830,-0.10,-0.01,-0.02,40,-66,30
-0.020,-0.056,9.830,+0.08,-0.01,+0.04,40,-66,30
-0.020,-0.056,9.830,-0.04,+0.06,-0.02,34,-64,26
-0.020,-0.056,9.830,-0.04,+0.06,-0.08,34,-64,26
-0.020,-0.056,9.830,-0.04,-0.01,-0.02,40,-72,30
-0.020,-0.056,9.830,+0.02,-0.01,+0.16,40,-72,30
-0.020,-0.056,9.830,-0.04,-0.01,+0.04,35,-75,25
-0.020,-0.056,9.830,-0.04,+0.12,+0.04,35,-75,25
-0.020,-0.056,9.830,+0.02,-0.07,-0.08,32,-72,28
-0.020,0.021,9.830,-0.04,-0.01,-0.02,32,-72,28
-0.020,0.021,9.830,-0.04,-0.07,-0.14,34,-72,32
-0.020,0.021,9.830,-0.04,-0.01,+0.04,34,-72,32
-0.020,0.021,9.830,+0.08,+0.18,-0.02,36,-74,30
-0.020,0.021,9.830,+0.02,-0.01,+0.10,36,-74,30
-0.020,0.021,9.830,-0.04,-0.01,+0.10,36,-78,30
-0.020,0.021,9.830,-0.04,+0.12,-0.08,36,-78,30
-0.020,0.021,9.830,-0.04,-0.07,-0.14,31,-71,27
-0.020,0.021,9.830,+0.02,+0.12,+0.04,31,-71,27
-0.020,0.021,9.830,+0.08,-0.07,-0.14,31,-71,29
-0.020,0.021,9.830,+0.02,-0.01,-0.08,31,-71,29
-0.020,0.021,9.830,+0.08,-0.01,-0.08,41,-75,29
-0.020,0.021,9.830,-0.04,+0.06,-0.02,41,-75,29
-0.020,-0.056,9.830,+0.02,+0.06,-0.08,33,-71,33
-0.020,-0.056,9.830,+0.08,+0.06,-0.02,33,-71,33
-0.020,-0.056,9.830,+0.08,+0.06,-0.02,36,-72,28
-0.020,0.021,9.830,-0.04,+0.12,+0.04,36,-72,28
-0.020,0.021,9.830,-0.04,-0.01,+0.04,30,-76,30
-0.020,0.021,9.830,+0.02,-0.01,-0.08,30,-76,30
-0.020,0.021,9.830,-0.04,-0.13,+0.04,33,-73,31
-0.020,0.021,9.830,-0.04,-0.01,+0.04,33,-73,31
-0.020,0.021,9.830,-0.10,+0.12,-0.02,30,-72,32
-0.020,0.021,9.830,-0.04,-0.01,-0.02,30,-72,32
-0.020,0.021,9.830,+0.02,-0.01,+0.04,35,-75,31
-0.020,0.021,9.830,-0.04,+0.06,+0.10,35,-75,31
-0.020,0.021,9.830,-0.04,-0.07,-0.02,36,-76,32
-0.020,0.021,9.830,+0.02,-0.01,-0.08,36,-76,32
-0.020,0.021,9.830,-0.04,-0.01,+0.10,36,-66,28
-0.020,0.021,9.830,+0.02,+0.12,+0.10,36,-66,28
-0.020,-0.056,9.830,-0.04,+0.18,-0.02,32,-72,30
-0.020,-0.056,9.830,+0.02,+0.06,+0.04,32,-72,30
-0.020,-0.056,9.753,-0.10,-0.07,-0.02,34,-72,28
-0.020,0.021,9.753,-0.04,-0.07,-0.08,34,-72,28
-0.020,0.021,9.753,-0.04,-0.19,+0.04,31,-71,25
-0.020,0.021,9.830,-0.04,-0.01,-0.02,31,-71,25
-0.020,0.021,9.830,+0.02,+0.06,-0.02,35,-71,29
-0.020,0.021,9.830,-0.10,-0.01,+0.04,35,-71,29
-0.020,0.021,9.830,-0.04,-0.01,+0.04,31,-71,31
-0.020,0.021,9.830,+0.14,-0.01,+0.04,31,-71,31
-0.020,0.021,9.830,+0.08,-0.07,-0.02,37,-73,29
-0.020,0.021,9.830,+0.08,+0.12,+0.04,37,-73,29
-0.020,0.021,9.830,+0.02,+0.06,+0.04,32,-70,30
-0.020,0.021,9.830,+0.02,-0.01,+0.04,32,-70,30
-0.020,0.021,9.830,+0.08,-0.07,-0.08,31,-71,33
-0.020,0.021,9.830,+0.02,-0.07,+0.04,31,-71,33
-0.020,-0.056,9.830,+0.02,-0.01,-0.02,32,-72,28
-0.020,-0.056,9.830,-0.04,+0.06,+0.04,32,-72,28
-0.020,-0.056,9.830,-0.04,-0.01,-0.02,29,-71,29
-0.020,-0.056,9.830,+0.02,+0.12,-0.02,29,-71,29
-0.020,-0.056,9.830,-0.04,-0.07,+0.04,33,-67,29
-0.020,-0.056,9.830,-0.04,-0.01,-0.02,33,-67,29
-0.020,-0.056,9.830,+0.08,-0.07,+0.10,38,-70,28
-0.020,-0.056,9.830,+0.08,-0.13,-0.08,38,-70,28
-0.020,-0.056,9.830,-0.04,-0.01,+0.10,34,-72,28
-0.020,-0.056,9.830,-0.04,+0.06,-0.02,34,-72,28
-0.020,-0.056,9.830,+0.02,-0.07,+0.04,34,-74,34
-0.020,-0.056,9.830,+0.08,-0.07,-0.08,34,-74,34
-0.020,-0.056,9.830,+0.02,+0.06,+0.04,34,-70,28
-0.020,-0.056,9.830,-0.04,-0.07,+0.04,34,-70,28
-0.020,-0.056,9.830,+0.02,-0.07,-0.02,34,-70,32
-0.020,0.021,9.830,+0.08,-0.07,+0.16,34,-70,32
-0.020,-0.056,9.830,-0.04,-0.13,+0.04,34,-68,28
-0.020,-0.056,9.830,+0.02,+0.06,+0.04,34,-68,28
-0.020,0.021,9.830,-0.04,+0.06,+0.10,35,-73,31
-0.020,0.021,9.830,-0.10,-0.01,-0.08,35,-73,31
-0.020,0.021,9.830,+0.02,+0.06,+0.10,30,-72,24
-0.020,0.021,9.830,-0.04,-0.01,-0.02,30,-72,24
-0.020,0.021,9.830,+0.02,-0.07,+0.04,34,-72,28
-0.020,0.021,9.830,+0.02,-0.01,+0.04,34,-72,28
-0.020,0.021,9.830,+0.14,-0.01,+0.04,34,-70,30
-0.020,0.021,9.830,+0.02,-0.01,+0.10,34,-70,30
-0.096,0.021,9.830,+0.02,-0.01,-0.02,33,-71,31
-0.020,0.021,9.830,+0.08,+0.06,+0.04,33,-71,31
-0.020,0.021,9.830,+0.02,-0.01,+0.04,35,-73,31
-0.020,-0.056,9.830,-0.04,-0.07,+0.10,35,-73,31
-0.020,-0.056,9.830,+0.02,-0.01,+0.10,27,-67,29
-0.020,-0.056,9.830,-0.04,-0.13,+0.04,27,-67,29
-0.020,-0.056,9.830,-0.04,-0.01,+0.04,39,-77,33
-0.020,-0.056,9.830,+0.02,-0.01,-0.02,39,-77,33
-0.020,-0.056,9.830,+0.02,-0.07,+0.04,29,-71,23
-0.020,-0.056,9.830,-0.04,-0.07,+0.04,29,-71,23
-0.020,0.021,9.830,+0.02,-0.13,+0.04,30,-68,32
-0.020,0.021,9.830,+0.02,-0.07,-0.02,30,-68,32
-0.020,0.021,9.830,+0.08,+0.06,-0.02,37,-71,31
-0.020,0.021,9.830,-0.04,-0.13,-0.14,37,-71,31
-0.020,0.021,9.830,+0.02,+0.06,-0.08,29,-71,31
-0.020,0.021,9.830,-0.04,-0.13,-0.02,29,-71,31
-0.020,0.021,9.753,+0.02,+0.06,+0.10,31,-71,31
-0.020,0.021,9.830,+0.02,-0.01,-0.02,31,-71,31
-0.020,0.021,9.830,-0.04,-0.01,+0.04,34,-74,34
-0.020,0.021,9.753,-0.04,-0.07,-0.02,34,-74,34
-0.020,0.021,9.753,-0.04,-0.13,-0.02,34,-72,22
-0.020,0.021,9.753,-0.10,-0.13,-0.08,34,-72,22
-0.020,-0.056,9.753,+0.08,-0.07,-0.08,32,-76,26
-0.020,0.021,9.753,+0.02,-0.07,-0.02,32,-76,26
-0.020,0.021,9.753,+0.02,-0.01,-0.08,37,-71,29
-0.020,0.021,9.753,+0.02,-0.13,-0.02,37,-71,29
-0.020,0.021,9.753,-0.04,-0.13,-0.02,33,-75,29
-0.020,0.021,9.753,+0.02,-0.01,-0.02,33,-75,29
-0.020,0.021,9.830,+0.08,+0.06,+0.04,37,-69,33
-0.020,0.021,9.830,+0.02,+0.06,-0.14,37,-69,33
-0.020,0.021,9.830,+0.08,-0.13,-0.08,34,-76,28
-0.020,0.021,9.830,+0.02,-0.13,+0.04,34,-76,28
0.057,0.021,9.830,-0.04,-0.13,+0.10,35,-73,31
-0.020,0.021,9.830,-0.04,+0.06,+0.04,35,-73,31
-0.020,0.021,9.830,+0.08,-0.07,+0.04,35,-71,29
-0.020,0.021,9.830,+0.08,-0.13,+0.04,35,-71,29
-0.020,0.021,9.830,-0.10,+0.06,-0.08,34,-72,28
-0.020,0.021,9.830,-0.04,-0.07,-0.08,34,-72,28
-0.020,0.021,9.830,-0.10,-0.01,+0.04,35,-69,29
-0.020,0.021,9.830,+0.08,-0.07,+0.04,35,-69,29
-0.020,0.021,9.830,+0.02,+0.06,+0.10,33,-69,31
-0.020,0.021,9.830,+0.02,+0.12,-0.02,33,-69,31
-0.020,0.021,9.830,+0.02,-0.01,-0.14,32,-76,28
-0.020,0.021,9.830,+0.08,-0.01,-0.02,32,-76,28
-0.020,0.021,9.830,-0.04,-0.07,+0.04,30,-72,26
-0.020,0.021,9.830,-0.04,-0.13,-0.02,30,-72,26
-0.020,0.021,9.830,+0.02,+0.12,+0.04,31,-77,29
-0.020,0.021,9.830,+0.02,-0.07,+0.04,31,-77,29
-0.020,0.021,9.830,-0.04,-0.07,-0.02,31,-69,31
-0.020,0.021,9.830,+0.02,-0.07,+0.04,31,-69,31
-0.020,0.021,9.830,+0.02,-0.01,+0.10,34,-74,28
-0.020,0.021,9.830,+0.08,+0.06,+0.04,34,-74,28
-0.020,0.021,9.830,-0.16,+0.12,+0.22,33,-75,25
-0.020,0.021,9.830,+0.02,+0.06,-0.02,33,-75,25
-0.020,-0.056,9.830,+0.02,-0.13,-0.02,39,-71,27
-0.020,-0.056,9.830,-0.04,-0.07,+0.04,39,-71,27
-0.020,-0.056,9.830,-0.04,+0.12,+0.04,34,-76,24
-0.020,-0.056,9.830,+0.02,-0.01,+0.04,34,-76,24
-0.020,-0.056,9.830,+0.02,-0.13,+0.10,34,-70,30
-0.020,-0.056,9.830,+0.02,-0.01,-0.02,34,-70,30
-0.020,-0.056,9.830,+0.08,+0.06,-0.02,34,-70,28
-0.020,-0.056,9.830,+0.02,+0.06,-0.02,34,-70,28
-0.020,-0.056,9.830,-0.04,+0.06,-0.02,30,-74,32
-0.020,-0.056,9.830,-0.10,-0.01,+0.04,30,-74,32
-0.020,0.021,9.830,+0.02,-0.07,-0.08,31,-73,29
-0.020,0.021,9.830,+0.02,-0.01,-0.02,31,-73,29
-0.020,0.021,9.830,+0.02,-0.01,+0.04,32,-70,34
-0.020,0.021,9.830,+0.02,-0.01,+0.10,32,-70,34
-0.020,0.021,9.830,-0.04,+0.18,+0.10,34,-70,30
-0.020,0.021,9.830,+0.14,-0.01,+0.10,34,-70,30
-0.020,0.021,9.830,+0.08,-0.07,+0.04,31,-71,31
-0.020,0.021,9.830,+0.08,+0.12,+0.04,31,-71,31
-0.020,0.021,9.830,+0.14,-0.01,-0.02,32,-74,28
-0.020,0.021,9.830,-0.04,+0.06,-0.02,32,-74,28
-0.020,0.021,9.830,-0.04,-0.07,+0.04,35,-65,29
-0.020,0.021,9.830,-0.04,-0.01,-0.08,35,-65,29
-0.020,0.021,9.830,-0.04,-0.01,+0.04,31,-69,29
-0.020,0.021,9.830,+0.02,+0.12,+0.10,31,-69,29
-0.020,0.021,9.830,+0.08,+0.06,-0.02,36,-72,28
-0.020,0.021,9.830,+0.02,+0.06,+0.10,36,-72,28
-0.020,0.021,9.830,-0.04,-0.01,+0.10,34,-74,28
-0.020,0.021,9.830,+0.08,-0.07,-0.02,34,-74,28
-0.020,0.021,9.830,+0.02,+0.06,-0.08,33,-73,29
-0.020,0.021,9.830,+0.02,-0.07,+0.10,33,-73,29
-0.020,0.021,9.830,+0.02,-0.01,+0.04,29,-73,33
-0.020,0.021,9.830,-0.04,+0.12,-0.08,29,-73,33
-0.020,0.021,9.830,-0.04,-0.01,+0.16,31,-73,29
-0.020,0.021,9.830,+0.02,-0.01,-0.02,31,-73,29
-0.020,0.021,9.830,+0.02,+0.06,+0.04,35,-67,31
-0.020,0.021,9.830,-0.04,+0.06,-0.02,35,-67,31
-0.020,0.021,9.753,-0.04,-0.01,+0.04,33,-67,31
-0.020,0.021,9.830,-0.04,-0.01,+0.10,33,-67,31
-0.020,0.021,9.753,+0.02,-0.13,+0.04,33,-69,29
-0.020,0.021,9.753,-0.04,-0.07,+0.10,33,-69,29
-0.020,0.021,9.753,-0.04,+0.06,-0.08,28,-72,26
-0.020,0.021,9.753,-0.04,-0.13,-0.02,28,-72,26
-0.020,0.021,9.830,+0.14,-0.01,+0.04,37,-75,29
-0.020,0.021,9.830,-0.04,-0.01,+0.04,37,-75,29
-0.020,0.021,9.830,+0.02,-0.07,-0.02,38,-78,28
-0.020,0.021,9.830,-0.04,-0.01,-0.08,38,-78,28
-0.020,0.021,9.830,+0.02,-0.07,-0.14,36,-68,28
-0.020,0.021,9.830,+0.02,-0.01,+0.10,36,-68,28
-0.020,0.021,9.753,+0.02,+0.12,-0.02,34,-70,34
-0.020,0.021,9.753,+0.02,-0.01,+0.04,34,-70,34
-0.020,0.021,9.753,+0.02,-0.01,-0.02,35,-71,27
-0.020,0.021,9.753,-0.04,+0.06,+0.04,35,-71,27
-0.020,-0.056,9.753,+0.02,+0.06,-0.02,33,-69,25
-0.020,-0.056,9.753,+0.02,-0.01,-0.02,33,-69,25
-0.020,0.021,9.753,+0.02,-0.07,+0.04,35,-71,31
-0.020,0.021,9.830,-0.04,+0.06,-0.02,35,-71,31
-0.020,0.021,9.830,+0.02,+0.06,+0.04,33,-71,31
-0.020,0.021,9.830,+0.02,+0.06,+0.10,33,-71,31
-0.020,0.021,9.830,+0.02,+0.06,-0.02,29,-71,27
-0.020,0.021,9.830,+0.08,-0.01,-0.02,29,-71,27
-0.020,0.021,9.830,-0.04,+0.06,+0.04,32,-72,26
-0.020,0.021,9.830,-0.10,-0.01,+0.04,32,-72,26
-0.020,0.021,9.830,+0.02,+0.06,+0.04,29,-75,31
-0.020,0.021,9.830,-0.04,+0.12,-0.08,29,-75,31
-0.020,0.021,9.753,-0.04,-0.01,-0.02,33,-67,29
-0.020,0.021,9.753,+0.02,+0.06,-0.08,33,-67,29
-0.020,0.021,9.753,+0.02,-0.01,-0.02,37,-73,33
-0.020,0.021,9.753,-0.04,-0.07,-0.08,37,-73,33
-0.020,0.021,9.753,-0.04,-0.07,+0.10,35,-71,29
-0.020,0.021,9.753,-0.04,+0.12,+0.10,35,-71,29
-0.020,0.021,9.753,-0.04,-0.01,+0.04,36,-72,34
-0.020,0.021,9.753,+0.02,-0.01,+0.04,36,-72,34
-0.020,0.021,9.753,-0.04,-0.07,-0.02,39,-75,29
-0.020,-0.056,9.753,-0.04,-0.07,-0.02,39,-75,29
-0.020,-0.056,9.753,+0.02,+0.06,+0.04,36,-72,28
-0.020,0.021,9.753,+0.08,+0.06,-0.02,36,-72,28
-0.020,0.021,9.753,+0.02,-0.07,-0.08,30,-72,26
-0.020,0.021,9.753,-0.10,+0.06,+0.04,30,-72,26
-0.020,0.021,9.753,+0.08,-0.07,-0.02,38,-72,28
0.057,0.021,9.753,-0.04,-0.01,-0.02,38,-72,28
-0.020,0.021,9.830,+0.02,+0.06,-0.02,33,-71,29
-0.020,0.021,9.753,-0.04,+0.06,+0.04,33,-71,29
-0.020,0.021,9.753,-0.10,+0.06,+0.10,39,-75,33
-0.020,0.021,9.753,+0.02,+0.06,+0.10,39,-75,33
-0.020,0.021,9.753,+0.02,+0.12,-0.08,34,-74,30
-0.020,-0.056,9.753,+0.02,+0.06,-0.08,34,-74,30
-0.020,0.021,9.753,+0.08,-0.01,+0.04,33,-73,37
-0.020,0.021,9.753,+0.02,-0.01,-0.02,33,-73,37
-0.020,0.021,9.753,-0.04,+0.12,+0.04,38,-76,30
-0.020,0.021,9.753,+0.02,-0.01,-0.08,38,-76,30
-0.020,0.021,9.753,+0.21,-0.01,+0.04,33,-71,23
-0.020,0.021,9.830,+0.08,+0.06,-0.02,33,-71,23
-0.020,0.021,9.830,-0.04,-0.01,+0.10,31,-73,29
-0.020,0.021,9.830,+0.02,+0.12,+0.04,31,-73,29
-0.020,0.021,9.830,-0.04,+0.06,-0.08,31,-73,31
-0.020,0.021,9.830,-0.10,+0.06,-0.02,31,-73,31
-0.020,0.021,9.830,+0.02,+0.06,-0.02,33,-71,33
-0.020,0.021,9.830,+0.02,+0.24,-0.08,33,-71,33
-0.020,0.021,9.830,-0.04,-0.01,-0.02,35,-67,33
0.057,0.021,9.830,+0.08,+0.06,+0.04,35,-67,33
0.057,0.021,9.830,+0.08,-0.01,+0.10,36,-72,32
0.057,0.021,9.830,+0.08,-0.01,+0.04,36,-72,32
-0.020,0.021,9.830,-0.16,+0.06,-0.02,35,-69,31
-0.020,0.021,9.830,-0.04,-0.01,+0.04,35,-69,31
-0.020,0.021,9.830,-0.10,-0.07,-0.14,41,-71,29
-0.020,0.021,9.830,-0.10,+0.06,-0.02,41,-71,29
-0.020,0.021,9.830,+0.02,-0.01,-0.08,35,-69,31
-0.020,0.021,9.830,+0.02,-0.07,-0.08,35,-69,31
-0.020,0.021,9.830,-0.10,-0.01,+0.04,31,-71,33
-0.020,0.021,9.830,+0.08,-0.07,+0.10,31,-71,33
-0.020,0.021,9.830,+0.08,-0.07,+0.04,41,-75,27
-0.020,0.021,9.830,+0.08,-0.01,+0.04,41,-75,27
-0.020,0.021,9.830,-0.04,+0.06,+0.04,34,-70,32
-0.020,0.021,9.830,-0.04,-0.07,-0.02,34,-70,32
-0.020,0.021,9.830,-0.04,-0.07,-0.02,33,-71,33
-0.020,-0.056,9.830,+0.02,-0.01,+0.04,33,-71,33
-0.020,-0.056,9.830,+0.08,+0.06,+0.04,32,-72,26
-0.020,-0.056,9.830,+0.02,+0.06,-0.02,32,-72,26
-0.020,-0.056,9.830,+0.02,+0.06,-0.02,34,-66,30
-0.020,-0.056,9.830,-0.04,+0.12,-0.02,34,-66,30
-0.020,-0.056,9.830,+0.02,-0.13,-0.08,35,-77,33
-0.020,-0.056,9.830,-0.04,-0.07,-0.08,35,-77,33
-0.020,0.021,9.830,+0.08,-0.01,+0.10,35,-77,31
-0.020,0.021,9.830,+0.02,-0.13,-0.08,35,-77,31
-0.020,0.021,9.830,-0.04,-0.01,-0.02,33,-71,29
-0.020,0.021,9.830,+0.02,-0.07,+0.04,33,-71,29
-0.020,0.021,9.830,-0.04,+0.06,+0.10,37,-69,27
-0.020,0.021,9.830,-0.10,-0.07,+0.04,37,-69,27
-0.020,0.021,9.830,+0.02,+0.06,-0.02,35,-69,27
-0.020,0.021,9.830,+0.02,-0.01,+0.04,35,-69,27
-0.020,0.021,9.830,-0.04,-0.01,-0.02,35,-65,29
-0.020,0.021,9.830,+0.02,-0.07,-0.02,35,-65,29
-0.020,0.021,9.830,+0.08,-0.01,-0.02,34,-70,28
-0.020,0.021,9.830,+0.08,-0.01,-0.02,34,-70,28
-0.020,0.021,9.830,-0.04,-0.01,+0.10,34,-70,30
-0.020,0.021,9.830,-0.04,-0.01,-0.02,34,-70,30
-0.020,0.021,9.830,+0.08,-0.01,+0.04,27,-73,33
-0.020,0.021,9.830,+0.08,+0.06,+0.04,27,-73,33
-0.020,0.021,9.830,-0.04,+0.06,-0.08,37,-71,35
-0.020,-0.056,9.830,+0.02,-0.01,-0.02,37,-71,35
-0.020,-0.056,9.830,+0.02,-0.01,-0.02,35,-71,31
-0.020,-0.056,9.830,+0.02,+0.06,-0.02,35,-71,31
-0.020,0.021,9.830,+0.02,-0.01,-0.08,29,-67,31
-0.020,0.021,9.830,-0.10,-0.01,+0.04,29,-67,31
-0.020,0.021,9.830,-0.10,+0.06,-0.02,32,-74,28
-0.020,0.021,9.830,+0.08,-0.13,+0.16,32,-74,28
-0.020,0.021,9.830,-0.04,-0.01,+0.10,35,-71,31
-0.020,0.021,9.830,-0.04,+0.12,+0.04,35,-71,31
-0.020,0.021,9.830,-0.04,-0.01,+0.04,29,-71,31
-0.020,0.021,9.830,-0.04,-0.07,-0.08,29,-71,31
-0.020,0.021,9.753,+0.02,-0.01,+0.04,36,-70,26
-0.020,0.021,9.753,+0.08,-0.13,-0.14,36,-70,26
-0.020,0.021,9.753,-0.10,-0.07,+0.04,28,-70,26
-0.020,0.021,9.753,-0.04,+0.06,+0.04,28,-70,26
-0.020,0.021,9.753,-0.04,+0.06,-0.02,35,-73,29
-0.020,0.021,9.830,+0.08,-0.01,+0.10,35,-73,29
-0.020,0.021,9.830,-0.04,+0.12,-0.02,36,-70,28
-0.020,0.021,9.830,+0.02,+0.12,-0.08,36,-70,28
-0.020,0.021,9.830,-0.10,+0.06,-0.08,33,-71,29
-0.020,0.021,9.830,+0.08,-0.07,-0.02,33,-71,29
-0.020,0.021,9.830,-0.04,-0.13,+0.10,34,-68,30
-0.020,0.021,9.830,-0.04,-0.07,+0.10,34,-68,30
-0.020,0.021,9.830,+0.02,-0.01,-0.02,38,-74,30
-0.020,0.021,9.830,-0.04,-0.07,-0.02,38,-74,30
-0.020,0.021,9.830,-0.04,+0.06,-0.02,41,-69,29
-0.020,0.021,9.830,-0.04,-0.07,+0.04,41,-69,29
-0.020,0.021,9.830,+0.02,-0.01,-0.02,35,-73,25
-0.020,0.021,9.830,+0.02,-0.01,+0.04,35,-73,25
-0.020,0.021,9.830,-0.10,-0.01,-0.02,32,-70,34
-0.020,0.021,9.830,-0.16,+0.06,-0.02,32,-70,34
-0.020,-0.056,9.753,+0.02,-0.07,+0.04,35,-69,35
-0.020,-0.056,9.753,-0.04,-0.01,-0.02,35,-69,35
-0.020,-0.056,9.830,-0.04,-0.13,+0.04,31,-69,27
-0.020,-0.056,9.830,+0.02,-0.01,-0.02,31,-69,27
-0.020,-0.056,9.753,-0.04,-0.01,+0.04,30,-66,24
-0.020,-0.056,9.753,-0.10,+0.12,-0.08,30,-66,24
-0.020,-0.056,9.753,-0.04,-0.07,-0.02,32,-74,30
-0.020,-0.056,9.830,-0.04,+0.06,+0.10,32,-74,30
-0.020,-0.056,9.830,+0.08,+0.12,-0.02,36,-72,32
-0.020,-0.056,9.830,-0.04,+0.12,-0.02,36,-72,32
-0.020,-0.056,9.830,-0.04,-0.01,-0.02,28,-74,34
-0.020,-0.056,9.830,-0.04,-0.19,-0.08,28,-74,34
-0.020,-0.056,9.830,-0.04,-0.01,+0.04,37,-71,31
-0.020,-0.056,9.830,-0.04,-0.01,-0.02,37,-71,31
-0.020,-0.056,9.830,+0.02,-0.07,-0.02,34,-74,30
-0.020,0.021,9.830,+0.08,-0.13,-0.02,34,-74,30
-0.020,0.021,9.830,+0.14,+0.12,+0.04,34,-68,32
-0.020,0.021,9.830,-0.04,+0.06,-0.02,34,-68,32
-0.020,0.021,9.830,+0.02,-0.07,-0.08,32,-72,28
-0.020,0.021,9.753,-0.04,-0.01,-0.02,32,-72,28
-0.020,0.021,9.753,+0.02,-0.01,-0.02,34,-72,30
-0.020,0.021,9.753,+0.02,+0.06,+0.04,34,-72,30
-0.020,0.021,9.830,-0.04,+0.12,-0.02,32,-70,28
-0.020,0.021,9.753,+0.02,-0.01,+0.04,32,-70,28
-0.020,0.021,9.753,+0.02,-0.01,-0.02,36,-72,30
-0.020,0.021,9.830,+0.02,-0.07,+0.04,36,-72,30
-0.020,0.021,9.830,-0.04,-0.07,-0.02,35,-73,31
-0.020,0.021,9.830,+0.02,-0.13,+0.04,35,-73,31
-0.020,0.021,9.830,+0.08,+0.06,+0.04,31,-73,31
-0.020,0.021,9.830,+0.02,-0.01,-0.08,31,-73,31
-0.020,-0.056,9.830,+0.02,-0.01,-0.02,31,-69,33
-0.020,-0.056,9.830,+0.08,-0.01,-0.08,31,-69,33
-0.020,0.021,9.830,+0.08,-0.01,-0.02,32,-72,34
-0.020,-0.056,9.830,+0.02,-0.01,-0.08,32,-72,34
-0.020,-0.056,9.830,+0.02,-0.01,-0.08,31,-75,29
-0.020,-0.056,9.830,+0.02,-0.01,-0.08,31,-75,29
-0.020,-0.056,9.830,-0.04,-0.07,-0.02,38,-74,28
-0.020,-0.056,9.830,+0.02,+0.18,+0.04,38,-74,28
-0.020,-0.056,9.830,+0.02,-0.07,-0.02,35,-69,25
-0.020,-0.056,9.830,-0.04,-0.07,-0.02,35,-69,25
-0.020,-0.056,9.830,-0.04,-0.19,-0.02,31,-73,31
-0.020,-0.056,9.830,+0.02,-0.01,-0.08,31,-73,31
-0.020,-0.056,9.830,+0.08,-0.01,+0.10,35,-71,31
-0.020,-0.056,9.830,+0.02,-0.01,+0.04,35,-71,31
-0.020,-0.056,9.830,+0.14,+0.12,+0.04,34,-72,30
-0.020,-0.056,9.830,+0.08,+0.06,+0.04,34,-72,30
-0.020,-0.056,9.830,+0.02,-0.01,-0.08,32,-72,24
-0.020,-0.056,9.830,-0.10,-0.13,+0.10,32,-72,24
-0.020,-0.056,9.830,-0.04,-0.01,-0.02,28,-72,30
-0.020,-0.056,9.830,-0.04,+0.06,-0.08,28,-72,30
-0.020,-0.056,9.830,+0.02,+0.06,-0.08,37,-73,29
-0.020,-0.056,9.830,+0.02,+0.18,-0.02,37,-73,29
-0.020,-0.056,9.830,+0.08,+0.06,-0.08,36,-68,32
-0.020,-0.056,9.830,+0.02,-0.01,+0.10,36,-68,32
-0.020,-0.056,9.830,+0.08,-0.07,-0.02,30,-74,30
-0.020,-0.056,9.830,+0.08,-0.07,+0.04,30,-74,30
-0.020,0.021,9.830,+0.02,-0.01,-0.02,33,-71,29
-0.020,-0.056,9.830,+0.02,+0.06,-0.02,33,-71,29
-0.020,-0.056,9.830,+0.02,-0.07,-0.02,35,-75,31
-0.020,-0.056,9.830,+0.02,+0.12,-0.02,35,-75,31
-0.020,-0.056,9.830,+0.02,-0.13,+0.04,32,-76,34
-0.020,-0.056,9.830,-0.04,-0.13,-0.02,32,-76,34
-0.020,-0.056,9.830,+0.02,-0.01,+0.04,33,-71,33
-0.020,-0.056,9.830,-0.10,+0.12,-0.02,33,-71,33
-0.020,-0.056,9.830,-0.10,-0.01,-0.02,33,-73,27
-0.020,-0.056,9.830,+0.02,+0.12,+0.04,33,-73,27
-0.020,-0.056,9.830,-0.04,+0.06,-0.02,36,-72,28
-0.020,-0.056,9.830,-0.04,-0.19,-0.02,36,-72,28
-0.020,-0.056,9.753,-0.04,-0.07,-0.02,32,-74,28
-0.020,-0.056,9.753,-0.04,-0.01,+0.04,32,-74,28
-0.020,-0.056,9.753,-0.04,+0.06,+0.04,36,-68,30
-0.020,-0.056,9.753,+0.02,-0.13,+0.04,36,-68,30
-0.020,-0.056,9.753,-0.10,-0.07,+0.04,36,-76,28
-0.020,-0.056,9.753,-0.04,+0.06,+0.04,36,-76,28
-0.020,-0.056,9.753,-0.04,-0.01,-0.02,34,-72,32
-0.020,-0.056,9.753,+0.02,+0.06,+0.10,34,-72,32
-0.020,-0.056,9.753,+0.08,+0.06,+0.16,32,-68,30
-0.020,0.021,9.830,+0.02,-0.01,+0.04,32,-68,30
-0.020,0.021,9.830,+0.02,+0.12,-0.02,35,-79,27
-0.020,0.021,9.830,-0.04,+0.06,-0.08,35,-79,27
-0.020,0.021,9.753,+0.02,-0.07,-0.02,32,-70,26
-0.020,0.021,9.830,+0.08,-0.13,+0.04,32,-70,26
-0.020,0.021,9.753,-0.10,-0.07,-0.08,32,-68,28
-0.020,-0.056,9.753,-0.04,-0.01,-0.14,32,-68,28
-0.020,-0.056,9.753,-0.04,-0.01,-0.08,34,-68,32
-0.020,-0.056,9.753,+0.02,+0.12,-0.02,34,-68,32
-0.020,-0.056,9.753,+0.02,+0.06,+0.04,31,-71,27
-0.020,-0.056,9.753,+0.02,+0.06,-0.08,31,-71,27
-0.020,-0.056,9.830,+0.08,+0.06,-0.08,30,-72,32
-0.020,-0.056,9.830,+0.02,-0.01,+0.04,30,-72,32
-0.020,-0.056,9.830,-0.04,+0.06,+0.04,31,-71,29
-0.020,-0.056,9.830,+0.02,+0.06,-0.02,31,-71,29
-0.020,-0.056,9.830,-0.04,-0.01,+0.04,36,-72,32
-0.020,-0.056,9.830,+0.08,-0.01,-0.02,36,-72,32
-0.020,0.021,9.830,+0.02,-0.13,-0.02,30,-70,28
-0.020,0.021,9.830,-0.10,+0.06,-0.02,30,-70,28
-0.020,0.021,9.830,-0.10,-0.07,-0.02,37,-69,31
-0.020,0.021,9.830,-0.10,-0.01,-0.02,37,-69,31
-0.020,0.021,9.830,+0.02,+0.12,+0.10,33,-73,33
-0.020,0.021,9.753,+0.02,-0.07,-0.02,33,-73,33
-0.020,0.021,9.830,-0.04,+0.06,-0.08,34,-74,30
-0.020,0.021,9.753,-0.04,-0.01,-0.02,34,-74,30
-0.020,0.021,9.830,+0.02,-0.01,+0.04,30,-72,26
-0.020,0.021,9.830,+0.02,-0.01,-0.02,30,-72,26
-0.020,0.021,9.830,-0.04,-0.07,+0.16,35,-71,29
-0.020,0.021,9.830,+0.08,-0.07,-0.08,35,-71,29
-0.020,0.021,9.830,-0.10,-0.07,+0.04,34,-70,30
-0.020,-0.056,9.830,-0.10,+0.06,-0.02,34,-70,30
-0.020,-0.056,9.830,-0.10,-0.07,-0.02,37,-75,29
-0.020,-0.056,9.830,+0.02,+0.06,-0.02,37,-75,29
-0.020,-0.056,9.830,+0.02,-0.13,-0.02,34,-74,28
-0.020,-0.056,9.830,+0.02,-0.07,+0.04,34,-74,28
-0.020,-0.056,9.830,-0.04,+0.06,+0.04,34,-70,28
-0.020,-0.056,9.830,-0.10,+0.18,-0.02,34,-70,28
-0.020,-0.056,9.830,+0.08,-0.01,-0.02,32,-74,30
-0.020,-0.056,9.830,+0.02,-0.01,+0.10,32,-74,30
-0.020,-0.056,9.830,+0.02,+0.12,-0.02,34,-76,34
-0.020,-0.056,9.830,+0.08,+0.06,-0.02,34,-76,34
-0.020,0.021,9.830,-0.04,+0.06,+0.04,39,-73,29
-0.020,0.021,9.830,+0.02,+0.06,-0.08,39,-73,29
-0.020,0.021,9.830,+0.02,-0.13,+0.04,33,-71,27
-0.020,0.021,9.830,-0.10,-0.01,-0.08,33,-71,27
-0.020,0.021,9.830,+0.02,-0.01,-0.08,37,-71,31
-0.020,0.021,9.830,+0.08,-0.01,-0.02,37,-71,31
-0.020,0.021,9.830,-0.04,-0.01,-0.02,35,-69,31
-0.020,0.021,9.830,+0.02,+0.06,-0.02,35,-69,31
-0.020,0.021,9.830,-0.04,+0.12,-0.02,31,-67,25
-0.020,0.021,9.830,+0.02,+0.12,+0.04,31,-67,25
-0.020,0.021,9.830,-0.04,-0.01,-0.02,32,-72,30
-0.020,0.021,9.830,+0.02,+0.06,+0.04,32,-72,30
-0.020,0.021,9.830,+0.02,+0.06,-0.02,39,-75,27
-0.020,0.021,9.830,-0.04,-0.01,+0.10,39,-75,27
-0.020,0.021,9.830,+0.02,-0.07,-0.02,31,-73,27
-0.020,0.021,9.830,-0.04,-0.07,+0.04,31,-73,27
-0.020,0.021,9.830,-0.10,+0.06,-0.02,33,-63,27
-0.020,0.021,9.830,+0.02,+0.06,+0.10,33,-63,27
-0.020,0.021,9.830,+0.08,-0.07,-0.08,38,-72,28
-0.020,0.021,9.830,+0.02,+0.12,-0.08,38,-72,28
-0.020,0.021,9.830,+0.02,-0.01,-0.08,35,-69,29
-0.020,-0.056,9.830,+0.02,+0.06,-0.08,35,-69,29
-0.020,-0.056,9.830,-0.10,-0.07,-0.02,28,-72,30
-0.020,0.021,9.830,+0.02,-0.07,+0.04,28,-72,30
-0.020,0.021,9.830,+0.02,-0.01,+0.04,33,-69,27
-0.020,0.021,9.830,-0.04,+0.06,-0.02,33,-69,27
-0.020,0.021,9.830,+0.02,+0.06,+0.04,35,-69,23
-0.020,-0.056,9.830,-0.10,+0.06,+0.04,35,-69,23
-0.020,-0.056,9.830,-0.16,-0.07,+0.04,34,-72,34
-0.020,-0.056,9.753,-0.04,+0.06,+0.04,34,-72,34
-0.020,-0.056,9.753,+0.02,+0.12,+0.10,34,-72,28
-0.020,-0.056,9.753,-0.10,+0.06,-0.02,34,-72,28
-0.020,-0.056,9.753,+0.02,+0.06,-0.08,31,-73,31
-0.020,-0.056,9.753,+0.02,-0.01,-0.02,31,-73,31
-0.020,-0.056,9.753,+0.14,-0.01,+0.04,39,-67,31
-0.020,-0.056,9.830,+0.08,+0.06,-0.08,39,-67,31
-0.020,-0.056,9.830,+0.02,+0.06,-0.02,30,-76,30
-0.020,-0.056,9.830,+0.02,-0.13,+0.04,30,-76,30
-0.020,-0.056,9.830,+0.02,-0.07,-0.02,31,-73,29
-0.020,-0.056,9.830,+0.02,+0.06,-0.14,31,-73,29
-0.020,0.021,9.830,+0.08,+0.06,-0.08,31,-67,27
-0.020,0.021,9.830,+0.02,-0.01,-0.08,31,-67,27
-0.020,0.021,9.830,+0.02,+0.12,+0.04,39,-69,31
-0.020,0.021,9.830,+0.14,+0.12,-0.08,39,-69,31
-0.020,0.021,9.830,+0.02,-0.01,-0.08,30,-74,28
-0.020,-0.056,9.830,+0.02,-0.07,+0.10,30,-74,28
-0.020,-0.056,9.830,+0.02,-0.07,+0.10,34,-76,26
-0.020,-0.056,9.830,+0.02,-0.07,-0.02,34,-76,26
-0.020,-0.056,9.830,+0.02,-0.01,-0.02,33,-69,33
-0.020,-0.056,9.830,+0.02,+0.12,-0.08,33,-69,33
-0.020,-0.056,9.830,-0.04,-0.07,-0.08,33,-73,33
-0.020,0.021,9.830,+0.08,-0.01,+0.04,33,-73,33
-0.020,0.021,9.830,+0.08,-0.07,-0.02,36,-72,32
-0.020,0.021,9.830,+0.02,+0.06,+0.04,36,-72,32
-0.020,0.021,9.830,-0.04,-0.07,+0.04,35,-73,27
-0.020,0.021,9.830,+0.08,+0.12,-0.02,35,-73,27
-0.020,0.021,9.830,+0.08,-0.01,+0.10,37,-69,29
-0.020,0.021,9.753,-0.10,-0.07,-0.02,37,-69,29
-0.020,0.021,9.753,-0.04,-0.07,-0.02,34,-72,26
-0.020,-0.056,9.753,-0.04,-0.01,-0.02,34,-72,26
-0.020,-0.056,9.753,-0.04,-0.01,+0.10,33,-71,23
-0.020,-0.056,9.753,+0.02,+0.06,+0.04,33,-71,23
-0.020,-0.056,9.830,-0.04,+0.06,-0.08,33,-69,25
-0.020,-0.056,9.830,+0.02,+0.06,-0.02,33,-69,25
-0.020,-0.056,9.830,+0.02,-0.01,-0.02,31,-69,29
-0.020,-0.056,9.830,-0.04,-0.07,-0.02,31,-69,29
-0.020,-0.056,9.830,+0.14,+0.12,-0.02,31,-73,27
-0.020,-0.056,9.830,+0.02,+0.06,-0.02,31,-73,27
-0.020,-0.056,9.830,+0.02,-0.07,+0.04,31,-71,33
-0.020,-0.056,9.830,+0.08,-0.07,+0.04,31,-71,33
-0.020,-0.056,9.830,+0.02,-0.07,+0.04,35,-75,33
-0.020,-0.056,9.830,-0.04,+0.06,+0.10,35,-75,33
-0.020,-0.056,9.830,-0.04,-0.07,+0.04,32,-72,28
-0.020,0.021,9.830,+0.08,-0.01,+0.04,32,-72,28
-0.020,0.021,9.830,+0.02,+0.12,-0.02,34,-72,28
-0.020,0.021,9.830,+0.02,+0.06,+0.04,34,-72,28
-0.020,0.021,9.830,-0.10,+0.12,+0.10,35,-71,31
-0.020,0.021,9.830,+0.02,+0.12,+0.04,35,-71,31
-0.020,0.021,9.830,+0.02,-0.07,+0.04,34,-74,34
-0.020,0.021,9.830,+0.08,+0.12,+0.04,34,-74,34
-0.020,0.021,9.830,-0.04,-0.01,+0.04,32,-68,32
-0.020,0.021,9.830,-0.04,+0.06,+0.04,32,-68,32
-0.020,0.021,9.830,-0.04,-0.01,-0.02,37,-71,33
-0.020,0.021,9.830,-0.04,-0.07,+0.16,37,-71,33
-0.020,0.021,9.830,-0.04,+0.06,+0.10,38,-78,26
-0.020,0.021,9.830,+0.02,-0.07,-0.02,38,-78,26
-0.020,0.021,9.830,-0.04,+0.06,+0.04,33,-71,33
-0.020,0.021,9.830,+0.02,-0.01,+0.04,33,-71,33
-0.020,0.021,9.830,-0.10,+0.06,+0.04,36,-78,28
-0.020,0.021,9.830,-0.04,+0.18,+0.04,36,-78,28
-0.020,0.021,9.830,+0.02,+0.06,-0.02,34,-72,30
0.057,0.021,9.830,+0.02,+0.06,+0.04,34,-72,30
-0.020,0.021,9.830,-0.10,+0.06,+0.04,32,-72,28
0.057,0.021,9.830,+0.02,-0.07,-0.02,32,-72,28
0.057,0.021,9.830,+0.02,-0.01,+0.04,32,-78,26
0.057,0.021,9.830,+0.08,-0.13,-0.02,32,-78,26
0.057,0.021,9.830,+0.02,+0.12,-0.02,33,-67,27
0.057,0.021,9.830,+0.02,+0.12,+0.10,33,-67,27
0.057,0.021,9.830,+0.08,+0.06,+0.10,35,-75,25
0.057,0.021,9.830,+0.02,+0.06,-0.08,35,-75,25
0.057,0.021,9.830,+0.02,+0.06,+0.04,35,-75,27
0.057,0.021,9.830,+0.14,-0.01,+0.04,35,-75,27
0.057,0.021,9.830,+0.02,-0.01,+0.10,37,-73,25
0.057,0.021,9.830,+0.08,-0.13,+0.10,37,-73,25
0.057,0.021,9.830,+0.14,-0.13,-0.02,34,-66,22
0.057,0.021,9.830,+0.02,-0.01,-0.08,34,-66,22
0.057,0.021,9.830,-0.10,-0.01,-0.02,33,-67,29
0.057,0.021,9.830,+0.02,+0.06,-0.02,33,-67,29
-0.020,0.021,9.830,-0.04,+0.06,+0.04,37,-75,33
-0.020,0.021,9.830,+0.02,-0.07,+0.10,37,-75,33
-0.020,0.021,9.830,+0.02,-0.07,-0.02,38,-72,28
0.057,0.021,9.830,-0.10,+0.12,+0.04,38,-72,28
0.057,0.021,9.830,+0.02,-0.07,-0.02,36,-76,30
0.057,0.021,9.830,+0.02,-0.01,+0.04,36,-76,30
0.057,0.021,9.830,+0.08,-0.01,-0.02,33,-69,27
0.057,0.021,9.830,-0.04,-0.01,+0.04,33,-69,27
0.057,0.021,9.830,-0.10,+0.12,-0.02,32,-70,32
0.057,0.021,9.830,+0.02,-0.13,-0.02,32,-70,32
0.057,0.021,9.830,+0.02,-0.13,+0.04,33,-67,27
0.057,0.021,9.830,+0.02,+0.12,+0.04,33,-67,27
0.057,0.021,9.830,-0.04,-0.13,-0.02,36,-74,30
0.057,0.021,9.830,-0.04,-0.01,-0.02,36,-74,30
-0.020,0.021,9.830,+0.02,-0.01,+0.04,33,-73,31
0.057,0.021,9.830,+0.02,+0.06,+0.04,33,-73,31
0.057,0.021,9.830,+0.02,+0.06,-0.02,36,-76,28
0.057,0.021,9.753,+0.02,-0.01,+0.10,36,-76,28
0.057,0.021,9.830,-0.04,-0.01,-0.02,34,-72,26
0.057,0.021,9.753,-0.10,+0.12,-0.02,34,-72,26
-0.020,0.021,9.753,+0.08,+0.06,-0.08,36,-70,32
-0.020,0.021,9.753,+0.02,-0.07,-0.02,36,-70,32
-0.020,0.021,9.753,+0.08,-0.07,-0.02,29,-73,27
-0.020,0.021,9.753,-0.04,+0.06,-0.14,29,-73,27
-0.020,-0.056,9.830,+0.02,-0.07,-0.02,30,-74,28
-0.020,-0.056,9.830,-0.04,-0.01,+0.04,30,-74,28
-0.020,-0.056,9.753,+0.02,-0.07,-0.08,31,-77,29
-0.020,0.021,9.753,-0.04,-0.07,+0.04,31,-77,29
-0.020,0.021,9.753,+0.02,-0.07,+0.04,35,-73,25
-0.020,0.021,9.753,+0.02,-0.01,+0.04,35,-73,25
-0.020,0.021,9.753,+0.08,+0.06,-0.02,36,-74,32
-0.020,0.021,9.753,+0.08,+0.18,+0.04,36,-74,32
-0.020,0.021,9.753,-0.10,-0.01,+0.04,35,-73,31
-0.020,0.021,9.753,+0.02,-0.01,+0.10,35,-73,31
-0.020,0.021,9.753,+0.02,-0.01,+0.10,34,-68,30
-0.020,0.021,9.830,-0.16,+0.06,-0.08,34,-68,30
-0.020,0.021,9.830,+0.02,+0.06,+0.16,33,-71,29
0.057,0.021,9.830,+0.08,-0.01,-0.02,33,-71,29
0.057,0.021,9.830,+0.02,-0.01,+0.04,30,-74,26
0.057,0.021,9.830,+0.02,-0.13,+0.04,30,-74,26
-0.020,0.021,9.830,+0.02,-0.07,+0.04,31,-73,27
0.057,0.021,9.830,+0.02,-0.07,+0.04,31,-73,27
0.057,0.021,9.830,-0.04,-0.01,-0.02,33,-69,33
0.057,0.021,9.830,+0.08,+0.06,-0.08,33,-69,33
0.057,0.021,9.830,-0.04,+0.12,-0.02,34,-72,30
0.057,0.021,9.830,+0.02,+0.06,-0.02,34,-72,30
-0.020,0.021,9.830,+0.08,+0.06,+0.10,34,-68,30
0.057,0.021,9.830,+0.02,+0.06,-0.02,34,-68,30
0.057,0.021,9.753,-0.04,-0.25,+0.04,39,-73,27
-0.020,0.021,9.753,+0.02,-0.13,-0.02,39,-73,27
-0.020,0.021,9.830,+0.02,-0.01,+0.10,35,-71,29
-0.020,0.021,9.830,+0.08,+0.06,+0.04,35,-71,29
-0.020,0.021,9.830,-0.04,-0.13,+0.10,34,-74,30
-0.020,0.021,9.830,-0.10,+0.06,+0.10,34,-74,30
-0.020,0.021,9.830,+0.08,+0.12,-0.02,39,-71,25
-0.020,0.021,9.830,+0.02,-0.01,-0.08,39,-71,25
-0.020,0.021,9.830,+0.02,-0.07,+0.04,29,-73,29
-0.020,0.021,9.830,+0.02,-0.19,-0.08,29,-73,29
-0.020,0.021,9.830,-0.10,+0.06,-0.02,29,-77,29
-0.020,0.021,9.830,+0.08,+0.12,-0.02,29,-77,29
-0.020,0.021,9.830,-0.04,+0.12,-0.02,34,-74,28
-0.020,0.021,9.830,+0.08,-0.13,-0.02,34,-74,28
-0.020,0.021,9.830,+0.08,-0.13,+0.04,35,-67,31
-0.020,0.021,9.830,+0.08,-0.07,+0.04,35,-67,31
-0.020,0.021,9.830,+0.08,-0.01,-0.08,29,-69,27
-0.020,0.021,9.830,-0.04,-0.01,-0.08,29,-69,27
-0.020,0.021,9.830,+0.08,-0.07,-0.02,32,-70,26
-0.020,0.021,9.830,+0.02,-0.01,+0.04,32,-70,26
-0.020,0.021,9.830,+0.02,+0.12,+0.16,35,-69,29
-0.020,0.021,9.830,-0.04,+0.06,+0.04,35,-69,29
-0.020,0.021,9.830,-0.10,+0.12,+0.04,33,-71,29
0.057,0.021,9.830,-0.04,-0.07,+0.04,33,-71,29
-0.020,0.097,9.830,-0.04,-0.01,+0.04,33,-71,33
-0.020,0.021,9.830,+0.02,+0.06,-0.02,33,-71,33
0.057,0.021,9.830,+0.02,+0.06,-0.08,31,-71,31
-0.020,0.021,9.830,+0.02,-0.01,+0.04,31,-71,31
-0.020,0.021,9.830,+0.02,-0.07,+0.10,32,-70,30
-0.020,0.021,9.830,+0.08,+0.06,+0.04,32,-70,30
-0.020,0.021,9.830,+0.02,+0.06,-0.02,33,-67,29
-0.020,0.021,9.830,+0.02,-0.01,+0.04,33,-67,29
0.057,0.021,9.830,+0.02,-0.01,-0.02,36,-74,34
0.057,0.021,9.830,-0.04,+0.06,+0.04,36,-74,34
0.057,0.021,9.753,+0.08,-0.13,-0.02,29,-69,23
0.057,0.021,9.830,+0.02,-0.01,-0.08,29,-69,23
0.057,0.021,9.830,+0.02,+0.06,+0.04,34,-72,30
0.057,0.021,9.830,+0.02,+0.06,-0.08,34,-72,30
0.057,0.021,9.753,-0.10,+0.06,+0.04,32,-72,24
-0.020,0.021,9.830,-0.04,-0.13,-0.08,32,-72,24
-0.020,0.021,9.830,-0.04,-0.07,-0.02,29,-69,27
-0.020,0.021,9.830,-0.04,-0.01,+0.04,29,-69,27
-0.020,0.021,9.830,-0.04,-0.07,+0.04,35,-67,27
-0.020,0.021,9.830,+0.02,-0.07,-0.02,35,-67,27
-0.020,0.021,9.830,-0.04,-0.25,-0.02,28,-72,32
-0.020,0.021,9.830,-0.04,-0.07,+0.04,28,-72,32
-0.020,0.021,9.830,+0.08,+0.06,-0.08,34,-70,30
-0.020,0.021,9.830,+0.02,-0.07,+0.04,34,-70,30
-0.020,0.021,9.830,+0.02,-0.01,-0.02,35,-79,27
-0.020,0.021,9.830,+0.02,-0.07,+0.10,35,-79,27
-0.020,0.021,9.830,-0.04,-0.07,-0.08,30,-74,26
-0.020,0.021,9.830,+0.02,+0.06,-0.08,30,-74,26
-0.020,0.021,9.830,+0.02,+0.12,+0.04,33,-69,29
-0.020,0.021,9.830,+0.08,-0.01,+0.04,33,-69,29
-0.020,0.021,9.830,-0.04,+0.12,-0.08,30,-74,30
-0.020,0.021,9.753,-0.10,-0.07,-0.08,30,-74,30
0.057,0.021,9.753,+0.02,+0.12,-0.02,32,-68,24
0.057,0.021,9.830,-0.04,-0.01,+0.04,32,-68,24
0.057,0.021,9.830,-0.04,-0.01,-0.02,28,-74,32
0.057,0.021,9.830,+0.02,-0.07,+0.04,28,-74,32
0.057,0.021,9.830,+0.02,+0.06,-0.14,36,-74,28
0.057,0.021,9.830,-0.04,-0.01,-0.02,36,-74,28
0.057,0.021,9.830,-0.04,+0.06,+0.04,32,-70,28
0.057,0.021,9.830,+0.08,-0.01,-0.02,32,-70,28
0.057,0.021,9.830,+0.08,+0.12,-0.02,36,-76,30
0.057,0.021,9.753,+0.08,+0.06,-0.02,36,-76,30
0.057,0.021,9.753,+0.02,-0.01,-0.02,31,-77,29
0.057,0.021,9.830,+0.02,-0.01,+0.10,31,-77,29
0.057,0.021,9.830,+0.02,-0.01,-0.08,32,-72,30
-0.020,0.021,9.830,-0.04,-0.01,-0.02,32,-72,30
0.057,0.021,9.753,+0.02,+0.06,+0.10,32,-70,28
0.057,0.021,9.830,+0.02,+0.06,+0.04,32,-70,28
-0.020,0.021,9.753,+0.02,+0.06,-0.08,33,-73,33
0.057,0.021,9.830,+0.02,-0.01,+0.04,33,-73,33
0.057,0.021,9.830,-0.04,+0.06,-0.08,31,-71,31
-0.020,0.021,9.830,-0.10,-0.01,+0.04,31,-71,31
0.057,0.021,9.830,+0.08,+0.12,+0.04,33,-75,29
0.057,0.021,9.830,+0.02,-0.01,+0.04,33,-75,29
0.057,0.021,9.830,+0.02,-0.07,-0.08,35,-69,31
0.057,0.021,9.830,-0.04,-0.01,+0.10,35,-69,31
0.057,0.021,9.830,-0.04,+0.12,+0.04,34,-78,30
-0.020,0.021,9.830,+0.02,-0.01,-0.02,34,-78,30
-0.020,0.021,9.830,+0.08,+0.06,+0.04,36,-70,26
-0.020,0.021,9.830,-0.04,-0.01,+0.04,36,-70,26
-0.020,0.021,9.830,+0.02,-0.01,-0.14,32,-70,28
-0.020,0.021,9.830,+0.02,+0.12,-0.02,32,-70,28
-0.020,0.021,9.830,+0.02,-0.01,+0.10,31,-67,31
-0.020,0.021,9.830,-0.10,+0.06,-0.08,31,-67,31
-0.020,0.021,9.830,-0.04,+0.12,+0.04,32,-68,30
-0.020,0.021,9.830,+0.02,+0.12,+0.04,32,-68,30
-0.020,0.021,9.830,-0.04,-0.01,-0.02,29,-73,31
-0.020,0.021,9.830,-0.10,-0.13,+0.04,29,-73,31
-0.020,0.021,9.830,-0.04,-0.07,+0.04,37,-73,33
0.057,0.021,9.830,-0.10,+0.06,+0.04,37,-73,33
-0.020,0.021,9.830,+0.08,-0.01,-0.02,37,-69,29
-0.020,0.021,9.830,-0.04,-0.07,-0.02,37,-69,29
-0.020,0.021,9.830,-0.04,+0.06,-0.02,33,-65,25
-0.020,0.021,9.830,-0.04,-0.19,+0.04,33,-65,25
-0.020,0.021,9.830,+0.02,-0.07,+0.10,34,-72,28
-0.020,0.021,9.830,-0.04,-0.01,+0.10,34,-72,28
-0.020,0.021,9.830,-0.10,-0.01,-0.08,33,-73,31
-0.020,0.021,9.830,-0.04,-0.01,-0.02,33,-73,31
-0.020,0.021,9.830,-0.04,-0.07,+0.04,33,-75,29
-0.020,-0.056,9.830,+0.02,+0.12,+0.04,33,-75,29
-0.020,-0.056,9.830,+0.08,-0.07,+0.10,37,-77,35
-0.020,-0.056,9.830,-0.04,+0.06,-0.02,37,-77,35
-0.020,-0.056,9.830,+0.02,-0.07,+0.10,32,-72,30
-0.020,-0.056,9.830,+0.08,-0.07,+0.04,32,-72,30
-0.020,-0.056,9.830,-0.04,-0.01,+0.04,29,-75,29
-0.020,-0.056,9.830,+0.02,-0.07,+0.16,29,-75,29
-0.020,-0.056,9.830,-0.10,+0.06,-0.02,35,-65,35
-0.020,-0.056,9.830,+0.08,-0.19,-0.02,35,-65,35
-0.020,-0.056,9.753,+0.08,+0.06,-0.02,29,-67,29
-0.020,-0.056,9.753,+0.02,+0.06,-0.02,29,-67,29
-0.020,0.021,9.753,+0.08,+0.06,-0.02,31,-73,33
-0.020,0.021,9.830,+0.08,-0.07,+0.10,31,-73,33
-0.020,0.021,9.830,+0.14,+0.06,+0.10,39,-75,31
-0.020,0.021,9.830,-0.04,-0.07,+0.04,39,-75,31
-0.020,0.021,9.830,+0.02,-0.01,-0.02,36,-70,30
-0.020,0.021,9.830,-0.10,+0.06,-0.02,36,-70,30
-0.020,0.021,9.830,-0.10,-0.07,+0.04,38,-76,28
-0.020,0.021,9.830,+0.02,+0.06,-0.08,38,-76,28
-0.020,0.021,9.830,+0.02,-0.07,-0.02,32,-74,26
-0.020,0.021,9.830,+0.02,+0.06,+0.04,32,-74,26
-0.020,0.021,9.830,-0.04,-0.07,+0.04,38,-76,28
-0.020,0.021,9.830,-0.04,+0.06,+0.04,38,-76,28
-0.020,0.021,9.830,-0.16,-0.07,+0.10,36,-68,34
-0.020,0.021,9.830,+0.02,+0.06,+0.04,36,-68,34
-0.020,0.021,9.830,+0.02,+0.12,-0.02,33,-73,33
-0.020,0.021,9.830,-0.04,-0.01,-0.08,33,-73,33
-0.020,0.021,9.830,+0.02,+0.12,+0.10,36,-72,28
-0.020,0.021,9.830,+0.02,-0.01,-0.02,36,-72,28
-0.020,0.021,9.830,+0.02,-0.13,-0.08,33,-73,29
-0.020,0.021,9.830,-0.10,-0.01,-0.02,33,-73,29
-0.020,0.021,9.830,-0.04,-0.01,-0.14,38,-74,32
-0.020,0.021,9.830,+0.08,-0.13,-0.08,38,-74,32
-0.020,0.021,9.830,-0.10,-0.01,-0.02,37,-69,29
-0.020,0.021,9.830,+0.02,-0.01,+0.04,37,-69,29
-0.020,0.021,9.830,-0.04,-0.13,-0.08,30,-72,28
-0.020,0.021,9.830,+0.02,-0.07,+0.10,30,-72,28
-0.020,0.021,9.753,-0.04,+0.06,-0.14,32,-72,28
-0.020,0.021,9.830,-0.04,-0.01,-0.02,32,-72,28
-0.020,0.021,9.830,+0.02,+0.06,-0.02,31,-71,33
-0.020,0.021,9.830,-0.04,-0.01,+0.10,31,-71,33
-0.020,0.021,9.830,-0.04,-0.13,+0.10,35,-73,29
-0.020,0.021,9.830,-0.04,-0.07,-0.08,35,-73,29
-0.020,0.021,9.830,+0.08,+0.12,+0.04,35,-73,29
-0.020,0.021,9.830,-0.04,+0.06,+0.10,35,-73,29
-0.020,0.021,9.830,+0.08,+0.12,-0.02,32,-72,28
-0.020,0.021,9.830,+0.02,-0.07,+0.04,32,-72,28
-0.020,0.021,9.830,+0.02,-0.01,+0.10,40,-74,30
-0.020,0.021,9.907,-0.04,-0.07,-0.02,40,-74,30
-0.020,0.021,9.830,+0.08,-0.01,-0.08,36,-70,30
-0.020,0.021,9.830,+0.02,-0.13,-0.08,36,-70,30
-0.020,0.021,9.830,+0.02,-0.01,+0.04,34,-76,28
-0.020,0.021,9.830,+0.02,+0.12,-0.02,34,-76,28
-0.020,0.021,9.830,+0.02,-0.01,+0.04,32,-70,30
-0.020,0.021,9.830,+0.02,-0.01,-0.08,32,-70,30
-0.020,0.021,9.830,-0.04,+0.12,-0.08,35,-69,31
-0.020,0.021,9.830,-0.04,+0.06,-0.08,35,-69,31
-0.020,0.021,9.830,-0.04,-0.01,-0.08,31,-71,29
-0.020,0.021,9.830,+0.02,+0.06,+0.04,31,-71,29
-0.020,0.021,9.830,+0.02,-0.01,+0.04,38,-72,28
-0.020,0.021,9.830,-0.04,+0.06,+0.04,38,-72,28
-0.020,0.021,9.830,-0.10,-0.01,-0.08,35,-71,29
-0.020,0.021,9.830,+0.08,-0.01,+0.04,35,-71,29
0.057,0.021,9.830,+0.02,-0.01,-0.02,33,-75,31
-0.020,0.021,9.830,+0.02,-0.07,-0.02,33,-75,31
0.057,0.021,9.830,+0.02,-0.01,+0.16,38,-72,30
0.057,0.021,9.830,+0.08,-0.01,-0.08,38,-72,30
0.057,0.021,9.830,+0.02,-0.07,-0.02,35,-75,29
-0.020,0.021,9.830,-0.04,+0.06,-0.08,35,-75,29
0.057,0.021,9.830,-0.04,-0.07,+0.04,26,-70,32
0.057,0.021,9.830,+0.08,+0.12,-0.08,26,-70,32
0.057,0.021,9.830,-0.04,-0.13,-0.08,35,-71,27
0.057,0.021,9.830,-0.04,-0.01,-0.08,35,-71,27
0.057,0.021,9.830,-0.04,-0.13,-0.02,28,-72,32
0.057,0.021,9.830,+0.02,-0.07,-0.02,28,-72,32
0.057,0.021,9.830,-0.04,-0.07,+0.04,31,-73,27
0.057,0.021,9.830,-0.04,-0.01,-0.02,31,-73,27
0.057,0.021,9.830,+0.08,+0.06,+0.04,32,-74,34
0.057,0.021,9.830,-0.04,+0.12,-0.08,32,-74,34
-0.020,0.021,9.830,+0.08,-0.01,-0.08,30,-74,32
-0.020,0.021,9.830,+0.02,+0.06,-0.02,30,-74,32
-0.020,0.021,9.830,-0.04,+0.12,-0.02,33,-75,27
-0.020,0.021,9.830,+0.02,+0.06,+0.04,33,-75,27
-0.020,0.021,9.830,+0.02,+0.06,+0.04,35,-71,29
-0.020,0.021,9.830,-0.04,-0.01,+0.04,35,-71,29
-0.020,0.021,9.830,-0.04,-0.19,+0.04,34,-72,36
-0.020,0.021,9.830,+0.08,+0.06,+0.04,34,-72,36
-0.020,0.021,9.830,-0.04,-0.01,+0.04,33,-69,31
-0.020,0.021,9.830,+0.02,-0.07,+0.04,33,-69,31
-0.020,0.021,9.830,+0.08,-0.01,+0.04,32,-76,30
-0.020,0.021,9.830,+0.02,+0.06,-0.08,32,-76,30
-0.020,0.021,9.830,+0.02,+0.06,+0.04,35,-71,29
-0.020,0.021,9.830,-0.04,-0.07,-0.02,35,-71,29
-0.020,0.021,9.753,-0.10,-0.01,-0.02,36,-68,30
-0.020,0.021,9.830,-0.16,-0.19,+0.10,36,-68,30
-0.020,0.021,9.753,-0.04,-0.01,+0.10,31,-73,27
-0.020,0.021,9.753,+0.02,+0.06,-0.02,31,-73,27
-0.020,0.021,9.830,+0.02,+0.06,-0.02,38,-74,32
-0.020,0.021,9.830,-0.04,-0.01,+0.10,38,-74,32
0.057,0.021,9.753,+0.02,-0.01,-0.02,37,-77,25
0.057,0.021,9.753,-0.04,-0.01,+0.04,37,-77,25
0.057,0.021,9.753,-0.04,-0.07,-0.02,34,-74,32
0.057,0.021,9.753,+0.08,+0.06,+0.04,34,-74,32
0.057,0.021,9.830,-0.04,-0.01,+0.04,37,-71,27
0.057,0.021,9.830,+0.02,+0.06,-0.08,37,-71,27
0.057,0.021,9.830,+0.14,+0.06,-0.08,32,-68,30
0.057,0.021,9.830,+0.08,+0.12,-0.08,32,-68,30
0.057,0.021,9.830,+0.02,+0.06,-0.08,32,-70,28
0.057,0.021,9.830,+0.02,-0.07,-0.02,32,-70,28
0.057,0.021,9.830,+0.02,+0.06,-0.02,31,-73,27
0.057,0.021,9.830,+0.02,-0.01,-0.02,31,-73,27
-0.020,0.021,9.907,-0.04,-0.01,-0.14,36,-72,28
-0.020,0.021,9.830,-0.10,-0.01,-0.02,36,-72,28
-0.020,0.021,9.830,+0.02,+0.06,+0.04,32,-74,32
-0.020,0.021,9.830,-0.04,-0.07,-0.08,32,-74,32
-0.020,0.021,9.830,-0.04,-0.07,-0.02,34,-70,30
-0.020,0.021,9.830,+0.02,-0.07,-0.08,34,-70,30
-0.020,0.021,9.830,-0.10,+0.06,+0.04,37,-71,27
-0.020,0.021,9.830,+0.08,-0.01,+0.04,37,-71,27
0.057,0.021,9.830,+0.02,+0.12,+0.04,32,-74,28
-0.020,0.021,9.830,+0.08,+0.06,+0.04,32,-74,28
-0.020,0.021,9.830,+0.02,-0.01,-0.02,34,-70,30
-0.020,0.021,9.830,-0.04,-0.01,+0.10,34,-70,30
-0.020,0.021,9.830,+0.02,-0.01,+0.10,32,-72,30
-0.020,0.021,9.830,+0.02,+0.12,+0.10,32,-72,30
-0.020,0.021,9.830,-0.04,-0.01,+0.04,29,-73,29
-0.020,0.021,9.830,+0.14,-0.07,-0.08,29,-73,29
-0.020,0.021,9.830,+0.02,+0.06,+0.04,32,-70,30
-0.020,0.021,9.830,+0.02,-0.01,-0.02,32,-70,30
-0.020,0.021,9.753,+0.02,-0.19,+0.10,32,-74,28
-0.020,0.021,9.753,+0.08,-0.07,-0.02,32,-74,28
0.057,0.021,9.753,-0.04,-0.07,-0.02,32,-72,30
0.057,0.021,9.830,+0.02,-0.01,-0.08,32,-72,30
0.057,0.021,9.830,+0.02,+0.12,-0.02,38,-68,32
0.057,-0.056,9.830,-0.10,+0.06,+0.04,38,-68,32
0.057,-0.056,9.830,+0.02,-0.01,-0.08,33,-71,31
-0.020,-0.056,9.830,+0.08,+0.12,-0.02,33,-71,31
-0.020,-0.056,9.830,+0.02,+0.06,-0.08,38,-68,30
-0.020,-0.056,9.830,+0.02,-0.01,+0.10,38,-68,30
-0.020,-0.056,9.830,+0.08,-0.07,+0.10,31,-73,29
-0.020,-0.056,9.830,+0.02,-0.13,-0.02,31,-73,29
-0.020,-0.056,9.830,-0.04,-0.01,-0.08,37,-75,31
-0.020,-0.056,9.830,-0.04,-0.07,+0.04,37,-75,31
-0.020,-0.056,9.830,+0.02,-0.13,-0.02,35,-71,31
-0.020,-0.056,9.830,+0.02,+0.06,+0.04,35,-71,31
-0.020,0.021,9.830,+0.08,-0.07,-0.08,33,-71,31
-0.020,-0.056,9.830,+0.02,-0.01,-0.02,33,-71,31
-0.020,-0.056,9.830,-0.04,-0.01,-0.14,35,-71,33
-0.020,-0.056,9.830,+0.02,-0.01,+0.04,35,-71,33
-0.020,-0.056,9.830,-0.10,-0.07,+0.04,32,-72,30
-0.020,0.021,9.830,-0.04,-0.01,+0.10,32,-72,30
-0.020,0.021,9.830,+0.08,-0.07,-0.02,31,-71,31
-0.020,0.021,9.830,+0.08,+0.06,+0.10,31,-71,31
-0.020,0.021,9.830,+0.08,+0.06,-0.02,31,-75,29
-0.020,0.021,9.830,-0.04,-0.01,-0.08,31,-75,29
-0.020,0.021,9.830,+0.02,-0.01,+0.04,28,-72,32
-0.020,0.021,9.830,-0.16,+0.06,+0.04,28,-72,32
0.057,0.021,9.830,+0.02,-0.01,-0.08,33,-69,27
0.057,0.021,9.830,+0.08,+0.06,+0.10,33,-69,27
0.057,0.021,9.830,-0.04,-0.07,+0.10,30,-70,28
0.057,0.021,9.830,+0.08,-0.01,-0.02,30,-70,28
-0.020,0.021,9.830,+0.02,-0.13,+0.04,35,-73,29
-0.020,0.021,9.830,+0.02,-0.07,+0.04,35,-73,29
-0.020,0.021,9.830,-0.04,-0.07,+0.04,34,-76,30
-0.020,0.021,9.830,+0.02,+0.06,+0.04,34,-76,30
-0.020,0.021,9.830,-0.04,+0.18,+0.10,30,-72,30
-0.020,0.021,9.830,-0.10,+0.06,-0.02,30,-72,30
-0.020,0.021,9.830,-0.04,+0.06,-0.08,38,-74,30
-0.020,0.021,9.830,-0.04,-0.01,-0.08,38,-74,30
-0.020,0.021,9.830,+0.02,+0.06,+0.04,29,-71,29
-0.020,0.021,9.830,+0.02,+0.06,-0.02,29,-71,29
-0.020,0.021,9.830,-0.04,+0.06,-0.02,35,-69,33
0.057,0.021,9.830,+0.08,-0.01,-0.02,35,-69,33
-0.020,0.021,9.830,+0.02,+0.06,-0.02,28,-74,28
-0.020,0.021,9.830,-0.04,-0.19,+0.04,28,-74,28
-0.020,0.021,9.753,-0.04,-0.01,-0.02,38,-68,26
-0.020,0.021,9.753,-0.10,-0.01,+0.04,38,-68,26
-0.020,0.021,9.753,+0.02,+0.12,-0.02,32,-76,28
-0.020,0.021,9.753,+0.02,+0.06,-0.02,32,-76,28
-0.020,0.021,9.753,-0.04,+0.06,-0.02,32,-68,28
-0.020,0.021,9.753,-0.04,-0.01,+0.04,32,-68,28
-0.020,0.021,9.753,-0.04,-0.01,+0.04,29,-67,25
-0.020,0.021,9.753,-0.16,-0.01,-0.08,29,-67,25
-0.020,0.021,9.753,-0.04,+0.06,+0.04,28,-72,30
-0.020,0.021,9.830,-0.10,-0.07,-0.02,28,-72,30
0.057,0.021,9.830,+0.02,-0.13,+0.10,40,-72,28
0.057,0.021,9.830,+0.02,-0.01,+0.04,40,-72,28
-0.020,0.021,9.830,+0.14,+0.06,-0.08,38,-72,32
-0.020,0.021,9.830,+0.02,-0.01,-0.02,38,-72,32
-0.020,0.021,9.830,+0.02,-0.07,-0.02,33,-75,29
-0.020,0.021,9.830,+0.02,-0.07,+0.04,33,-75,29
-0.020,0.021,9.830,-0.04,-0.07,-0.02,29,-71,29
-0.020,0.021,9.830,+0.02,+0.06,-0.02,29,-71,29
-0.020,0.021,9.830,+0.02,+0.06,-0.02,32,-72,30
-0.020,0.021,9.830,+0.02,-0.07,+0.04,32,-72,30
-0.020,0.021,9.830,+0.02,-0.07,+0.10,35,-69,31
-0.020,0.021,9.830,+0.08,-0.01,-0.02,35,-69,31
-0.020,0.021,9.830,+0.08,-0.01,+0.04,36,-72,30
-0.020,0.021,9.830,-0.04,-0.07,-0.02,36,-72,30
-0.020,0.021,9.830,-0.04,-0.07,-0.02,33,-67,29
-0.020,0.021,9.830,-0.04,-0.01,+0.10,33,-67,29
-0.020,0.021,9.830,-0.10,-0.01,+0.04,32,-76,32
-0.020,0.021,9.830,+0.08,+0.06,+0.04,32,-76,32
-0.020,0.021,9.830,+0.08,-0.13,+0.04,35,-71,29
-0.020,0.021,9.830,+0.02,-0.07,-0.02,35,-71,29
-0.020,0.021,9.753,+0.21,-0.07,-0.02,35,-69,29
0.057,0.021,9.830,+0.02,+0.06,-0.02,35,-69,29
0.057,0.021,9.830,+0.02,-0.01,-0.14,35,-77,25
0.057,0.021,9.830,-0.16,-0.13,+0.04,35,-77,25
0.057,0.021,9.753,-0.04,-0.13,+0.04,33,-73,29
-0.020,0.021,9.830,+0.08,-0.01,-0.02,33,-73,29
-0.020,0.021,9.753,+0.02,-0.07,+0.04,37,-69,31
-0.020,0.021,9.830,+0.02,-0.07,-0.02,37,-69,31
-0.020,0.021,9.830,-0.04,-0.13,+0.04,29,-73,29
-0.020,0.021,9.830,+0.02,+0.06,-0.02,29,-73,29
-0.020,0.021,9.830,+0.02,-0.01,+0.04,32,-72,24
-0.020,0.021,9.830,+0.08,+0.18,-0.02,32,-72,24
-0.020,-0.056,9.830,+0.02,+0.06,-0.02,29,-71,29
-0.020,0.021,9.830,-0.16,+0.06,+0.10,29,-71,29
0.057,0.021,9.830,-0.04,+0.06,-0.08,31,-75,25
0.057,0.021,9.830,-0.04,-0.01,-0.08,31,-75,25
0.057,0.021,9.830,-0.04,-0.07,-0.02,33,-69,29
0.057,0.021,9.830,+0.02,-0.01,+0.04,33,-69,29
0.057,0.021,9.830,-0.04,-0.07,-0.02,32,-76,26
0.057,0.021,9.830,-0.04,-0.01,-0.08,32,-76,26
-0.020,0.021,9.830,-0.04,-0.07,-0.02,30,-72,32
0.057,0.021,9.830,-0.04,+0.12,+0.04,30,-72,32
-0.020,0.021,9.830,-0.10,+0.18,+0.04,31,-73,27
-0.020,0.021,9.830,+0.08,-0.13,-0.02,31,-73,27
-0.020,0.021,9.830,+0.02,+0.06,+0.04,32,-72,24
-0.020,0.021,9.830,-0.04,+0.06,+0.16,32,-72,24
-0.020,0.021,9.830,+0.08,+0.06,-0.08,36,-74,30
-0.020,-0.056,9.830,-0.04,+0.12,+0.04,36,-74,30
-0.020,0.021,9.830,-0.04,-0.07,+0.04,33,-73,33
-0.020,0.021,9.830,+0.02,-0.01,+0.04,33,-73,33
-0.020,0.021,9.753,+0.02,-0.07,+0.10,34,-74,28
-0.020,0.021,9.830,+0.02,-0.07,-0.02,34,-74,28
-0.020,0.021,9.830,-0.04,+0.12,-0.02,34,-70,28
-0.020,0.021,9.830,-0.04,-0.01,-0.02,34,-70,28
-0.020,0.021,9.830,+0.02,-0.01,-0.02,35,-73,33
-0.020,0.021,9.830,+0.02,-0.01,-0.08,35,-73,33
-0.020,0.021,9.753,+0.02,+0.06,-0.02,33,-69,27
-0.020,0.021,9.830,+0.02,+0.12,-0.08,33,-69,27
-0.020,-0.056,9.830,+0.02,+0.06,-0.08,30,-70,30
-0.020,0.021,9.830,-0.04,+0.06,-0.08,30,-70,30
-0.020,0.021,9.830,+0.02,-0.01,-0.02,34,-68,34
-0.020,0.021,9.830,+0.02,-0.01,-0.02,34,-68,34
-0.020,0.021,9.830,+0.02,+0.24,+0.04,37,-69,25
-0.020,0.021,9.830,+0.02,-0.01,-0.02,37,-69,25
-0.020,0.021,9.830,+0.02,+0.06,-0.08,36,-74,28
-0.020,0.021,9.830,+0.08,-0.01,-0.02,36,-74,28
-0.020,0.021,9.830,+0.02,+0.12,+0.04,31,-71,31
-0.020,0.021,9.830,+0.08,-0.01,-0.08,31,-71,31
-0.020,0.021,9.830,+0.02,-0.07,+0.04,34,-70,26
-0.020,0.021,9.830,-0.04,+0.06,-0.02,34,-70,26
-0.020,0.021,9.830,-0.04,+0.06,+0.10,31,-73,31
-0.020,0.021,9.830,+0.02,-0.07,-0.02,31,-73,31
-0.020,0.021,9.830,+0.02,+0.06,-0.08,35,-75,27
-0.020,0.021,9.830,+0.02,+0.06,+0.04,35,-75,27
-0.020,0.021,9.830,-0.04,+0.06,+0.04,36,-74,28
-0.020,0.021,9.830,+0.02,-0.07,-0.02,36,-74,28
-0.020,0.021,9.830,-0.04,-0.01,-0.02,35,-75,31
-0.020,-0.056,9.753,+0.02,+0.12,+0.04,35,-75,31
-0.020,-0.056,9.753,-0.04,-0.07,-0.02,33,-75,33
-0.020,0.021,9.830,+0.08,-0.13,+0.04,33,-75,33
-0.020,0.021,9.830,+0.02,+0.06,+0.04,29,-69,31
0.057,0.021,9.830,+0.08,+0.06,-0.08,29,-69,31
0.057,0.021,9.830,+0.02,-0.01,-0.02,38,-72,34
-0.020,0.021,9.830,+0.02,-0.01,-0.02,38,-72,34
-0.020,0.021,9.830,+0.08,-0.07,-0.02,34,-64,28
-0.020,0.021,9.830,-0.16,-0.25,-0.14,34,-64,28
-0.020,0.021,9.830,+0.14,+0.06,+0.04,39,-69,29
0.057,0.021,9.830,+0.02,-0.01,+0.04,39,-69,29
-0.020,0.021,9.830,+0.02,-0.07,-0.02,39,-71,31
-0.020,0.021,9.830,-0.04,-0.01,-0.08,39,-71,31
-0.020,0.021,9.830,+0.08,+0.12,-0.08,34,-72,32
0.057,0.021,9.830,-0.04,+0.12,-0.02,34,-72,32
0.057,0.021,9.753,-0.04,-0.01,+0.10,35,-71,27
0.057,0.021,9.753,+0.02,+0.06,+0.04,35,-71,27
0.057,0.021,9.753,+0.02,+0.06,-0.02,39,-69,33
-0.020,0.021,9.830,+0.02,-0.07,-0.08,39,-69,33
0.057,0.021,9.830,-0.04,-0.07,+0.04,28,-76,28
0.057,0.021,9.830,+0.14,-0.07,-0.02,28,-76,28
-0.020,0.021,9.830,-0.04,-0.07,+0.04,28,-76,30
-0.020,0.021,9.830,+0.08,+0.06,-0.02,28,-76,30
-0.020,0.021,9.830,-0.04,+0.06,-0.02,28,-70,28
-0.020,0.021,9.830,+0.02,+0.06,-0.02,28,-70,28
-0.020,0.021,9.830,+0.02,-0.07,-0.02,34,-76,32
-0.020,0.021,9.830,-0.10,-0.07,-0.08,34,-76,32
-0.020,0.021,9.830,-0.04,-0.13,-0.02,36,-74,30
-0.020,0.021,9.830,+0.02,-0.13,+0.04,36,-74,30
-0.020,0.021,9.830,+0.02,-0.07,-0.08,34,-72,30
-0.020,0.021,9.830,+0.08,-0.13,-0.14,34,-72,30
-0.020,0.021,9.830,-0.04,-0.07,+0.04,37,-71,29
-0.020,0.021,9.830,+0.08,-0.13,+0.10,37,-71,29
-0.020,0.021,9.830,+0.08,-0.01,+0.04,34,-70,28
-0.020,0.021,9.830,+0.02,-0.01,-0.02,34,-70,28
-0.020,0.021,9.830,+0.02,-0.07,+0.04,30,-72,28
-0.020,0.021,9.753,+0.02,-0.07,-0.08,30,-72,28
-0.020,0.021,9.830,+0.08,-0.07,-0.14,35,-71,27
0.057,0.021,9.753,+0.02,-0.01,+0.04,35,-71,27
0.057,0.021,9.753,-0.10,-0.01,-0.02,31,-69,27
0.057,0.021,9.753,-0.04,+0.06,-0.08,31,-69,27
0.057,-0.056,9.753,-0.10,-0.13,-0.02,36,-72,32
0.057,0.021,9.753,+0.02,-0.01,-0.02,36,-72,32
0.057,-0.056,9.830,+0.02,-0.07,-0.02,37,-71,29
-0.020,0.021,9.830,+0.02,+0.06,+0.10,37,-71,29
0.057,0.021,9.830,-0.10,-0.01,-0.08,31,-73,23
0.057,0.021,9.830,+0.02,-0.01,-0.14,31,-73,23
-0.020,0.021,9.830,-0.04,-0.01,-0.08,37,-69,27
-0.020,0.021,9.830,-0.10,-0.07,-0.02,37,-69,27
-0.020,0.021,9.830,-0.04,-0.07,+0.04,37,-81,31
-0.020,0.021,9.830,-0.04,+0.06,+0.04,37,-81,31
-0.020,0.021,9.830,-0.04,-0.07,+0.04,37,-65,29
-0.020,0.021,9.830,+0.02,+0.06,-0.02,37,-65,29
-0.020,0.021,9.753,+0.02,-0.07,+0.04,29,-71,27
-0.020,0.021,9.753,+0.02,-0.01,-0.02,29,-71,27
-0.020,0.021,9.753,+0.08,-0.01,+0.04,36,-74,26
-0.020,0.021,9.753,+0.02,-0.07,+0.04,36,-74,26
-0.020,0.021,9.753,+0.08,+0.06,-0.02,36,-72,28
-0.020,0.021,9.753,+0.02,-0.01,-0.02,36,-72,28
-0.020,-0.056,9.753,+0.14,-0.01,-0.02,30,-70,26
0.057,-0.056,9.753,-0.04,+0.06,-0.02,30,-70,26
0.057,-0.056,9.830,-0.04,-0.01,+0.04,33,-73,31
0.057,-0.056,9.830,-0.10,-0.07,+0.10,33,-73,31
-0.020,-0.056,9.830,-0.04,+0.06,+0.04,35,-73,29
-0.020,-0.056,9.830,-0.04,+0.18,+0.10,35,-73,29
0.057,-0.056,9.830,-0.04,-0.01,-0.02,34,-76,32
-0.020,-0.056,9.830,-0.04,-0.07,-0.08,34,-76,32
-0.020,0.021,9.830,+0.08,-0.01,-0.02,34,-70,28
-0.020,0.021,9.830,-0.04,-0.01,-0.08,34,-70,28
-0.020,0.021,9.830,+0.02,+0.12,-0.08,31,-69,31
-0.020,0.021,9.830,-0.10,-0.07,-0.08,31,-69,31
-0.020,0.021,9.830,-0.04,-0.07,-0.02,37,-71,29
-0.020,0.021,9.830,-0.04,-0.01,+0.04,37,-71,29
-0.020,0.021,9.830,+0.02,+0.06,-0.02,30,-72,32
-0.020,0.021,9.753,-0.04,+0.06,+0.04,30,-72,32
-0.020,0.021,9.753,-0.10,-0.13,-0.08,33,-71,29
-0.020,0.021,9.830,-0.04,-0.07,-0.08,33,-71,29
-0.020,0.021,9.830,-0.04,-0.13,-0.02,31,-73,29
-0.020,0.021,9.830,+0.08,+0.06,-0.02,31,-73,29
-0.020,0.021,9.830,-0.04,+0.06,-0.08,34,-74,30
-0.020,0.021,9.830,+0.08,+0.06,+0.04,34,-74,30
-0.020,0.021,9.830,+0.14,+0.18,+0.04,38,-70,30
-0.020,0.021,9.830,-0.10,+0.12,-0.02,38,-70,30
-0.020,0.021,9.830,+0.02,-0.01,+0.10,35,-79,31
-0.020,0.021,9.830,+0.02,+0.06,-0.02,35,-79,31
-0.020,0.021,9.830,-0.04,+0.06,-0.08,37,-73,29
-0.020,0.021,9.830,+0.08,-0.01,+0.04,37,-73,29
-0.020,0.097,9.830,+0.02,-0.01,+0.10,33,-69,29
-0.020,0.021,9.830,+0.02,+0.06,-0.02,33,-69,29
-0.020,0.021,9.830,+0.02,+0.06,-0.02,32,-74,24
-0.020,0.021,9.830,+0.02,-0.01,-0.08,32,-74,24
-0.020,0.021,9.830,-0.04,+0.06,-0.08,39,-71,27
-0.020,0.021,9.830,+0.02,+0.06,-0.14,39,-71,27
-0.020,0.021,9.830,-0.04,-0.07,-0.08,36,-70,36
-0.020,0.021,9.830,+0.14,+0.06,+0.04,36,-70,36
-0.020,0.021,9.830,+0.02,-0.07,-0.02,34,-66,30
-0.020,0.021,9.830,+0.08,-0.01,-0.02,34,-66,30
-0.020,0.021,9.830,+0.02,+0.06,+0.04,30,-72,30
-0.020,0.021,9.830,+0.02,-0.01,-0.02,30,-72,30
-0.020,0.021,9.830,+0.02,-0.01,-0.08,32,-70,32
-0.020,0.021,9.830,+0.02,-0.01,-0.02,32,-70,32
-0.020,0.021,9.830,+0.02,-0.01,+0.04,37,-73,31
-0.020,0.021,9.830,+0.08,-0.01,-0.02,37,-73,31
-0.020,0.021,9.830,-0.04,+0.06,-0.02,33,-71,33
-0.020,0.021,9.830,-0.04,-0.01,-0.08,33,-71,33
-0.020,0.021,9.830,-0.04,+0.12,+0.04,33,-75,33
-0.020,0.021,9.830,-0.04,+0.12,-0.02,33,-75,33
-0.020,0.021,9.830,-0.04,+0.06,-0.08,30,-76,30
0.057,0.021,9.830,+0.08,-0.01,+0.04,30,-76,30
0.057,0.021,9.830,+0.02,+0.12,+0.04,39,-71,31
-0.020,0.021,9.830,-0.04,-0.01,-0.02,39,-71,31
0.057,0.021,9.830,+0.02,+0.06,-0.02,33,-73,27
-0.020,0.021,9.830,-0.04,+0.12,-0.02,33,-73,27
-0.020,0.021,9.830,+0.02,+0.06,+0.04,38,-78,32
-0.020,0.021,9.753,+0.02,+0.06,-0.08,38,-78,32
-0.020,0.021,9.753,+0.02,-0.01,-0.02,38,-70,26
-0.020,0.021,9.753,+0.02,-0.19,-0.02,38,-70,26
-0.020,0.021,9.753,+0.08,-0.07,+0.10,34,-72,28
-0.020,0.021,9.753,+0.02,+0.06,+0.10,34,-72,28
-0.020,0.021,9.753,-0.04,-0.07,-0.02,31,-71,33
-0.020,0.021,9.753,+0.02,-0.07,-0.08,31,-71,33
-0.020,0.021,9.753,+0.08,-0.01,-0.02,34,-72,32
-0.020,0.021,9.830,+0.02,+0.06,+0.04,34,-72,32
-0.020,0.021,9.830,-0.04,-0.07,-0.08,33,-73,25
-0.020,0.021,9.830,+0.02,-0.01,-0.08,33,-73,25
-0.020,0.021,9.830,+0.02,-0.13,-0.02,40,-74,28
-0.020,0.021,9.830,-0.10,+0.06,-0.02,40,-74,28
-0.020,0.021,9.830,-0.10,-0.01,+0.04,30,-74,32
-0.020,0.021,9.830,+0.02,+0.12,+0.10,30,-74,32
-0.020,0.021,9.830,+0.02,+0.06,-0.02,35,-73,29
0.057,0.021,9.830,-0.10,-0.07,+0.04,35,-73,29
0.057,0.021,9.830,-0.04,-0.07,+0.10,41,-73,29
0.057,0.021,9.830,+0.02,+0.06,+0.04,41,-73,29
0.057,0.021,9.830,-0.04,+0.06,+0.04,29,-71,29
0.057,0.021,9.830,+0.02,+0.06,+0.10,29,-71,29
0.057,0.021,9.830,+0.08,+0.12,+0.16,31,-69,29
0.057,0.021,9.830,+0.02,+0.06,-0.02,31,-69,29
0.057,0.021,9.830,-0.04,+0.12,+0.04,33,-73,29
0.057,0.021,9.830,+0.08,-0.01,+0.10,33,-73,29
0.057,0.021,9.830,-0.10,+0.12,+0.04,34,-70,30
-0.020,0.021,9.830,-0.04,-0.07,+0.04,34,-70,30
-0.020,0.021,9.830,-0.10,-0.07,-0.02,34,-72,28
-0.020,0.021,9.830,-0.04,-0.01,-0.02,34,-72,28
-0.020,0.021,9.830,+0.02,+0.06,-0.02,35,-73,29
-0.020,0.021,9.830,-0.04,-0.13,-0.02,35,-73,29
-0.020,0.021,9.830,-0.10,-0.07,+0.04,32,-72,28
-0.020,-0.056,9.830,+0.02,+0.06,+0.10,32,-72,28
-0.020,0.021,9.830,+0.14,+0.06,-0.02,33,-69,33
-0.020,-0.056,9.830,-0.04,+0.06,-0.08,33,-69,33
-0.020,0.021,9.830,-0.10,-0.07,-0.02,32,-68,32
-0.020,0.021,9.830,-0.04,-0.19,-0.02,32,-68,32
0.057,0.021,9.830,+0.02,-0.13,-0.02,32,-78,30
-0.020,0.021,9.830,-0.04,-0.07,+0.16,32,-78,30
-0.020,0.021,9.830,+0.02,+0.06,-0.02,34,-74,32
-0.020,0.021,9.830,+0.02,-0.07,-0.08,34,-74,32
-0.020,0.021,9.830,+0.02,-0.01,-0.02,31,-71,27
-0.020,0.021,9.830,-0.04,-0.07,+0.04,31,-71,27
-0.020,0.021,9.830,-0.04,-0.01,-0.14,30,-76,30
-0.020,0.021,9.830,-0.04,-0.07,-0.02,30,-76,30
0.057,0.021,9.830,+0.02,-0.13,-0.08,32,-74,30
0.057,0.021,9.753,+0.02,+0.06,-0.02,32,-74,30
0.057,0.021,9.830,+0.02,-0.13,-0.08,38,-70,26
0.057,0.021,9.753,+0.02,-0.01,+0.04,38,-70,26
0.057,0.021,9.753,-0.10,-0.07,+0.04,34,-72,28
0.057,0.021,9.753,+0.02,+0.06,+0.04,34,-72,28
0.057,0.021,9.830,+0.02,-0.07,+0.04,35,-71,25
0.057,0.021,9.830,+0.02,+0.06,-0.02,35,-71,25
-0.020,0.021,9.830,-0.10,+0.06,-0.02,35,-75,29
-0.020,0.021,9.830,-0.04,-0.01,-0.02,35,-75,29
-0.020,0.021,9.830,+0.08,-0.01,-0.02,31,-75,27
0.057,0.021,9.830,+0.08,+0.06,-0.02,31,-75,27
0.057,0.021,9.830,-0.04,-0.01,+0.04,35,-69,35
0.057,0.021,9.830,+0.02,-0.01,-0.02,35,-69,35
0.057,0.021,9.830,+0.02,-0.07,-0.02,32,-74,28
0.057,-0.056,9.830,+0.08,-0.07,-0.02,32,-74,28
0.057,0.021,9.830,+0.08,-0.01,-0.02,35,-67,31
0.057,0.021,9.830,+0.02,+0.06,-0.02,35,-67,31
-0.020,0.021,9.830,-0.04,-0.13,+0.04,36,-68,26
-0.020,0.021,9.830,-0.04,-0.13,-0.02,36,-68,26
-0.020,0.021,9.830,+0.02,+0.06,-0.02,37,-71,29
-0.020,0.021,9.830,-0.04,-0.01,-0.02,37,-71,29
-0.020,0.021,9.830,+0.08,+0.12,-0.08,32,-74,26
-0.020,0.021,9.830,-0.04,-0.13,-0.02,32,-74,26
-0.020,0.021,9.830,+0.02,-0.13,-0.02,31,-73,29
-0.020,0.021,9.830,+0.02,+0.06,-0.02,31,-73,29
-0.020,0.021,9.830,-0.04,-0.07,-0.08,36,-74,26
-0.020,-0.056,9.830,-0.10,-0.01,-0.02,36,-74,26
-0.020,0.021,9.830,-0.04,+0.06,+0.04,32,-70,24
-0.020,0.021,9.830,-0.04,-0.13,-0.02,32,-70,24
0.057,0.021,9.830,-0.04,-0.07,+0.10,36,-72,32
0.057,0.021,9.830,+0.02,-0.01,+0.04,36,-72,32
0.057,0.021,9.830,-0.22,-0.07,+0.10,31,-69,33
0.057,0.021,9.830,-0.04,-0.01,-0.02,31,-69,33
0.057,0.021,9.830,-0.04,-0.01,+0.04,29,-73,27
0.057,0.021,9.830,-0.04,-0.13,-0.02,29,-73,27
0.057,0.021,9.830,-0.04,-0.01,+0.04,30,-74,28
0.057,0.021,9.830,-0.10,+0.06,-0.02,30,-74,28
0.057,0.021,9.830,-0.04,-0.07,-0.14,32,-72,26
0.057,0.021,9.830,+0.02,+0.18,+0.10,32,-72,26
0.057,0.021,9.830,+0.02,-0.01,+0.10,34,-70,32
-0.020,0.021,9.830,+0.02,-0.01,-0.02,34,-70,32
-0.020,0.021,9.830,-0.10,+0.06,+0.04,36,-76,28
-0.020,0.021,9.830,-0.10,-0.07,-0.08,36,-76,28
-0.020,0.021,9.830,-0.16,+0.06,+0.10,36,-74,32
-0.020,0.021,9.830,+0.02,+0.12,-0.02,36,-74,32
-0.020,0.021,9.830,+0.02,-0.01,+0.10,34,-70,26
-0.020,0.021,9.830,+0.08,-0.01,+0.04,34,-70,26
-0.020,0.021,9.830,-0.04,+0.06,-0.02,31,-67,31
-0.020,0.021,9.830,-0.10,-0.01,-0.02,31,-67,31
-0.020,0.021,9.753,-0.04,-0.01,-0.08,34,-72,26
-0.020,0.021,9.830,-0.04,+0.12,+0.04,34,-72,26
0.057,0.021,9.830,-0.10,-0.07,-0.02,30,-72,34
0.057,0.021,9.830,-0.10,-0.13,-0.02,30,-72,34
0.057,0.021,9.830,+0.02,-0.01,-0.02,29,-73,27
0.057,0.021,9.830,-0.10,-0.07,-0.08,29,-73,27
0.057,0.021,9.830,-0.10,+0.06,+0.04,30,-68,32
0.057,0.021,9.830,-0.04,-0.01,-0.02,30,-68,32
0.057,0.021,9.830,+0.08,-0.01,-0.02,31,-67,31
0.057,0.021,9.830,+0.02,-0.01,+0.04,31,-67,31
0.057,0.021,9.830,-0.04,-0.01,-0.02,36,-72,30
0.057,0.021,9.830,+0.02,+0.06,-0.02,36,-72,30
0.057,0.021,9.830,+0.08,-0.01,-0.08,33,-73,27
0.057,0.021,9.830,+0.02,-0.01,-0.02,33,-73,27
-0.020,0.021,9.830,-0.04,-0.07,+0.04,31,-71,23
-0.020,0.021,9.830,+0.08,+0.06,+0.04,31,-71,23
0.057,0.021,9.830,-0.10,-0.07,+0.04,31,-73,27
-0.020,0.021,9.830,+0.02,+0.06,-0.02,31,-73,27
-0.020,0.021,9.830,+0.14,+0.12,+0.04,36,-68,34
-0.020,0.021,9.830,-0.10,+0.06,-0.08,36,-68,34
-0.020,0.021,9.830,-0.04,-0.01,+0.04,39,-69,31
-0.020,0.021,9.830,-0.04,-0.01,-0.02,39,-69,31
0.057,0.021,9.830,-0.04,-0.01,+0.10,36,-72,26
0.057,0.021,9.830,+0.02,-0.01,+0.04,36,-72,26
0.057,0.021,9.830,+0.02,+0.06,-0.14,27,-71,27
0.057,-0.056,9.830,+0.02,-0.07,-0.02,27,-71,27
0.057,-0.056,9.830,-0.04,-0.07,-0.02,31,-71,29
0.057,0.021,9.830,+0.02,-0.13,-0.02,31,-71,29
-0.020,0.021,9.830,+0.02,+0.06,-0.14,33,-73,31
0.057,0.021,9.830,+0.08,-0.13,-0.08,33,-73,31
-0.020,-0.056,9.830,+0.02,-0.01,+0.04,27,-73,27
-0.020,0.021,9.830,-0.04,-0.07,+0.10,27,-73,27
-0.020,0.021,9.830,-0.10,-0.13,-0.08,35,-71,25
-0.020,0.021,9.830,-0.04,-0.07,-0.02,35,-71,25
-0.020,0.021,9.830,-0.22,+0.06,+0.04,40,-76,26
-0.020,0.021,9.907,+0.02,+0.06,+0.04,40,-76,26
-0.020,0.021,9.907,-0.04,-0.07,-0.02,39,-75,31
-0.020,0.021,9.907,+0.02,+0.06,-0.02,39,-75,31
-0.020,0.021,9.830,+0.02,-0.07,-0.02,34,-72,30
-0.020,0.021,9.830,+0.02,+0.06,-0.02,34,-72,30
-0.020,0.021,9.830,+0.02,+0.06,+0.10,35,-75,25
-0.020,-0.056,9.830,+0.02,-0.07,+0.04,35,-75,25
-0.020,0.021,9.830,+0.02,-0.07,+0.04,27,-73,31
-0.020,0.021,9.830,+0.02,-0.07,-0.08,27,-73,31
-0.020,0.021,9.830,-0.04,+0.06,+0.04,31,-69,25
-0.020,0.021,9.830,+0.02,+0.06,-0.02,31,-69,25
-0.020,0.021,9.830,+0.02,+0.12,+0.04,34,-74,30
-0.020,0.021,9.830,-0.04,-0.01,+0.10,34,-74,30
-0.020,0.021,9.753,-0.04,-0.07,+0.04,33,-73,31
-0.020,0.021,9.753,-0.10,+0.12,-0.08,33,-73,31
-0.020,0.021,9.753,-0.04,-0.07,-0.02,36,-70,28
-0.020,0.021,9.830,+0.08,-0.01,-0.08,36,-70,28
-0.020,0.021,9.830,-0.04,-0.01,-0.02,35,-73,29
-0.020,0.021,9.830,+0.02,-0.01,+0.04,35,-73,29
-0.020,0.021,9.830,-0.04,+0.06,-0.02,31,-69,29
-0.020,0.021,9.830,-0.04,-0.13,-0.02,31,-69,29
-0.020,0.021,9.830,+0.02,-0.07,-0.02,32,-72,30
-0.020,0.021,9.830,-0.10,-0.01,+0.04,32,-72,30
-0.020,0.021,9.830,+0.02,+0.18,+0.04,33,-71,33
-0.020,0.021,9.830,-0.04,-0.01,-0.02,33,-71,33
-0.020,0.021,9.830,+0.02,-0.01,-0.02,33,-73,31
0.057,0.021,9.830,+0.02,-0.01,+0.04,33,-73,31
0.057,0.021,9.830,+0.02,-0.07,+0.10,32,-74,26
-0.020,0.021,9.830,-0.10,-0.13,-0.02,32,-74,26
-0.020,0.021,9.830,+0.02,-0.01,-0.02,37,-71,29
-0.020,0.021,9.830,+0.02,-0.01,+0.04,37,-71,29
-0.020,0.021,9.830,-0.04,-0.13,-0.02,32,-70,26
-0.020,0.021,9.830,-0.04,-0.01,+0.04,32,-70,26
-0.020,0.021,9.830,+0.08,-0.13,+0.04,32,-74,28
0.057,0.021,9.830,+0.02,-0.13,+0.04,32,-74,28
0.057,0.021,9.830,-0.04,-0.07,-0.08,38,-74,30
0.057,0.021,9.830,+0.08,-0.01,-0.02,38,-74,30
0.057,0.021,9.830,-0.04,-0.13,+0.04,35,-71,27
0.057,0.021,9.830,-0.04,-0.01,-0.02,35,-71,27
0.057,0.021,9.830,+0.14,+0.12,+0.04,31,-73,35
-0.020,0.021,9.830,+0.02,-0.07,+0.04,31,-73,35
0.057,0.021,9.830,+0.14,-0.07,+0.04,29,-75,29
-0.020,0.021,9.830,+0.02,+0.18,-0.02,29,-75,29
-0.020,0.021,9.830,-0.04,+0.06,-0.08,31,-71,33
0.057,0.021,9.830,+0.02,+0.06,-0.02,31,-71,33
0.057,0.021,9.830,-0.04,-0.01,-0.02,33,-77,29
0.057,0.021,9.830,-0.04,-0.01,+0.04,33,-77,29
-0.020,0.021,9.830,-0.04,-0.07,-0.02,37,-71,27
-0.020,0.021,9.830,-0.10,-0.07,-0.02,37,-71,27
-0.020,0.021,9.830,-0.10,+0.06,+0.04,36,-72,30
-0.020,0.021,9.830,+0.02,-0.01,-0.08,36,-72,30
-0.020,0.021,9.830,+0.08,+0.06,-0.02,35,-75,31
-0.020,0.021,9.830,+0.02,+0.06,-0.02,35,-75,31
-0.020,0.021,9.830,+0.08,+0.18,+0.04,32,-72,30
0.057,0.021,9.830,-0.04,+0.06,-0.02,32,-72,30
0.057,0.021,9.830,+0.02,+0.06,-0.21,37,-67,33
0.057,0.021,9.830,+0.02,+0.06,+0.04,37,-67,33
0.057,0.021,9.830,-0.04,-0.07,+0.04,32,-76,30
0.057,0.021,9.830,-0.10,-0.01,-0.08,32,-76,30
0.057,0.021,9.830,-0.04,-0.01,-0.02,35,-75,29
0.057,0.021,9.830,+0.02,-0.07,+0.04,35,-75,29
0.057,0.021,9.830,+0.02,+0.12,-0.02,32,-78,30
-0.020,0.021,9.830,-0.04,+0.18,-0.08,32,-78,30
-0.020,0.021,9.830,-0.04,+0.18,+0.04,36,-76,32
-0.020,0.021,9.830,-0.04,-0.01,-0.08,36,-76,32
-0.020,0.021,9.830,-0.04,-0.01,+0.04,32,-76,28
-0.020,0.021,9.830,+0.02,-0.07,-0.02,32,-76,28
-0.020,0.021,9.830,+0.08,+0.06,-0.02,34,-72,28
-0.020,0.021,9.830,+0.02,-0.01,-0.02,34,-72,28
-0.020,0.021,9.830,+0.02,-0.01,-0.08,30,-72,26
-0.020,0.021,9.830,+0.08,+0.06,-0.02,30,-72,26
-0.020,-0.056,9.830,+0.02,-0.01,-0.14,37,-69,29
-0.020,-0.056,9.830,-0.04,-0.01,-0.14,37,-69,29
-0.020,0.021,9.830,+0.08,-0.01,-0.02,32,-76,26
-0.020,-0.056,9.830,+0.08,+0.06,-0.08,32,-76,26
-0.020,-0.056,9.830,+0.02,+0.06,+0.04,36,-72,28
-0.020,-0.056,9.753,-0.04,+0.06,+0.04,36,-72,28
0.057,-0.056,9.830,-0.04,-0.07,+0.04,36,-70,28
-0.020,-0.056,9.830,-0.04,-0.07,+0.10,36,-70,28
-0.020,-0.056,9.830,+0.08,-0.01,+0.04,31,-75,27
0.057,-0.056,9.753,+0.08,+0.06,+0.04,31,-75,27
0.057,-0.056,9.753,+0.02,-0.01,-0.08,35,-75,23
0.057,-0.056,9.753,+0.02,-0.01,-0.08,35,-75,23
0.057,-0.056,9.830,-0.04,-0.07,-0.02,33,-71,29
-0.020,0.021,9.830,+0.02,+0.06,-0.08,33,-71,29
-0.020,0.021,9.830,-0.16,-0.01,-0.02,31,-71,27
0.057,0.021,9.830,-0.10,-0.07,+0.10,31,-71,27
0.057,0.021,9.830,-0.10,+0.06,-0.02,31,-67,29
0.057,0.021,9.830,-0.04,+0.06,+0.04,31,-67,29
0.057,0.021,9.830,+0.08,+0.12,+0.04,36,-68,28
0.057,0.021,9.830,+0.02,-0.13,-0.08,36,-68,28
0.057,0.021,9.830,+0.02,-0.07,+0.10,32,-72,28
0.057,0.021,9.830,+0.08,-0.07,-0.02,32,-72,28
0.057,0.021,9.830,+0.02,-0.07,-0.08,38,-70,24
0.057,0.021,9.830,-0.04,-0.01,-0.02,38,-70,24
0.057,0.021,9.830,+0.08,+0.06,-0.08,35,-75,31
0.057,0.021,9.830,+0.08,+0.12,-0.02,35,-75,31
0.057,0.021,9.830,+0.02,+0.06,-0.08,40,-72,28
0.057,0.021,9.830,-0.04,-0.01,-0.14,40,-72,28
0.057,0.021,9.830,+0.02,-0.07,-0.02,34,-70,32
0.057,0.021,9.753,-0.04,-0.01,+0.10,34,-70,32
0.057,0.021,9.753,-0.10,+0.06,-0.08,32,-68,26
0.057,0.021,9.830,-0.04,-0.01,+0.04,32,-68,26
0.057,0.021,9.753,-0.04,-0.07,-0.02,34,-72,30
0.057,0.021,9.753,+0.02,+0.12,+0.10,34,-72,30
0.057,0.021,9.753,+0.02,+0.12,-0.02,33,-73,25
0.057,0.021,9.753,+0.02,-0.07,-0.14,33,-73,25
0.057,0.021,9.753,+0.02,-0.19,-0.02,30,-76,28
0.057,0.021,9.830,+0.08,-0.01,-0.08,30,-76,28
-0.020,0.021,9.830,+0.02,+0.12,-0.08,31,-71,25
-0.020,0.021,9.830,-0.04,-0.01,-0.02,31,-71,25
-0.020,0.021,9.830,-0.04,-0.01,+0.04,37,-73,29
-0.020,0.021,9.830,+0.02,+0.12,-0.02,37,-73,29
-0.020,0.021,9.830,+0.02,-0.07,+0.10,32,-70,34
-0.020,0.021,9.830,+0.08,-0.07,+0.04,32,-70,34
-0.020,0.021,9.830,-0.10,-0.13,+0.04,35,-73,35
-0.020,0.021,9.830,-0.10,-0.01,-0.02,35,-73,35
-0.020,0.021,9.830,-0.04,-0.01,+0.04,32,-72,26
-0.020,0.021,9.830,-0.04,+0.06,-0.02,32,-72,26
-0.020,-0.056,9.830,-0.04,+0.06,-0.08,35,-73,31
-0.020,0.021,9.830,-0.04,-0.07,-0.08,35,-73,31
-0.020,0.021,9.830,-0.04,-0.07,-0.02,34,-70,28
-0.020,0.021,9.830,-0.04,-0.01,-0.08,34,-70,28
-0.020,0.021,9.830,+0.02,-0.07,-0.02,33,-69,31
-0.020,0.021,9.830,+0.02,-0.01,-0.02,33,-69,31
0.057,0.021,9.830,+0.08,+0.06,+0.04,35,-73,31
0.057,0.021,9.830,+0.02,+0.06,+0.04,35,-73,31
0.057,0.021,9.830,-0.04,+0.06,+0.04,33,-71,25
0.057,0.021,9.830,+0.08,-0.01,+0.04,33,-71,25
0.057,0.021,9.830,+0.08,+0.06,-0.02,34,-70,30
0.057,0.021,9.830,+0.08,-0.01,-0.02,34,-70,30
0.057,0.021,9.830,+0.08,+0.12,-0.02,32,-76,28
-0.020,0.021,9.830,-0.04,+0.06,+0.04,32,-76,28
-0.020,0.021,9.830,+0.02,-0.01,+0.04,40,-70,34
-0.020,0.021,9.830,-0.16,+0.06,+0.10,40,-70,34
-0.020,0.021,9.830,+0.02,-0.01,-0.02,31,-77,27
-0.020,0.021,9.830,+0.08,-0.01,-0.02,31,-77,27
-0.020,0.021,9.830,+0.02,-0.01,+0.04,33,-73,29
-0.020,0.021,9.830,-0.10,-0.07,-0.02,33,-73,29
-0.020,0.021,9.830,-0.04,-0.01,-0.02,31,-73,31
-0.020,0.021,9.753,+0.02,-0.01,-0.02,31,-73,31
-0.020,0.021,9.753,-0.04,+0.12,-0.02,40,-72,26
-0.020,0.021,9.753,-0.04,+0.12,+0.04,40,-72,26
-0.020,0.021,9.753,-0.04,+0.06,+0.04,34,-72,30
-0.020,-0.056,9.753,-0.04,-0.07,+0.10,34,-72,30
-0.020,0.021,9.753,+0.02,+0.06,+0.04,35,-69,31
-0.020,0.021,9.753,-0.04,+0.06,+0.04,35,-69,31
-0.020,0.021,9.753,-0.04,+0.06,+0.04,34,-68,30
-0.020,0.021,9.753,-0.04,+0.06,+0.04,34,-68,30
-0.020,0.021,9.753,-0.10,-0.13,-0.08,27,-73,29
-0.020,0.021,9.830,+0.08,-0.01,-0.02,27,-73,29
-0.020,0.021,9.830,+0.02,-0.01,-0.08,35,-73,33
-0.020,0.021,9.830,+0.02,-0.01,+0.04,35,-73,33
-0.020,0.021,9.830,+0.08,-0.01,-0.02,35,-69,35
-0.020,0.021,9.830,-0.10,-0.01,-0.02,35,-69,35
-0.020,-0.056,9.830,-0.04,-0.07,-0.02,34,-72,30
-0.020,0.021,9.830,+0.02,-0.01,-0.02,34,-72,30
-0.020,0.021,9.830,+0.02,-0.01,-0.02,34,-72,32
-0.020,0.021,9.830,+0.08,-0.07,-0.02,34,-72,32
0.057,0.021,9.830,+0.02,-0.01,+0.10,36,-70,32
-0.020,0.021,9.830,-0.04,-0.01,+0.04,36,-70,32
-0.020,0.021,9.830,+0.08,-0.01,+0.10,33,-73,31
-0.020,0.021,9.830,+0.02,-0.01,+0.04,33,-73,31
-0.020,0.021,9.830,-0.04,-0.13,+0.04,34,-72,34
-0.020,0.021,9.830,-0.04,-0.01,+0.16,34,-72,34
-0.020,0.021,9.830,+0.14,-0.07,-0.02,37,-67,31
-0.020,0.021,9.830,+0.14,+0.12,-0.02,37,-67,31
-0.020,0.021,9.830,-0.16,+0.12,-0.02,34,-70,28
-0.020,0.021,9.830,+0.08,-0.07,+0.04,34,-70,28
-0.020,0.021,9.830,+0.02,-0.01,+0.04,33,-67,29
-0.020,0.021,9.830,-0.04,-0.01,+0.10,33,-67,29
0.057,0.021,9.830,-0.10,-0.07,-0.02,36,-74,30
0.057,0.021,9.830,+0.02,-0.01,-0.08,36,-74,30
0.057,0.021,9.830,+0.02,-0.01,+0.04,34,-70,32
0.057,0.021,9.830,+0.02,-0.07,+0.10,34,-70,32
0.057,0.021,9.753,+0.02,-0.07,-0.02,32,-74,26
0.057,0.021,9.830,+0.02,-0.07,-0.02,32,-74,26
0.057,0.021,9.830,+0.02,-0.01,-0.02,32,-70,32
0.057,0.021,9.830,+0.02,-0.01,+0.04,32,-70,32
0.057,0.021,9.830,+0.02,-0.01,-0.02,35,-73,29
0.057,0.021,9.830,-0.04,-0.07,-0.02,35,-73,29
0.057,0.021,9.830,-0.04,-0.01,+0.04,35,-77,29
-0.020,-0.056,9.830,-0.10,+0.12,+0.04,35,-77,29
0.057,0.021,9.830,-0.04,-0.07,-0.02,30,-76,32
0.057,0.021,9.830,+0.02,-0.13,-0.02,30,-76,32
-0.020,0.021,9.830,-0.04,+0.06,+0.04,34,-72,32
0.057,0.021,9.830,-0.04,-0.01,+0.04,34,-72,32
0.057,0.021,9.830,+0.02,-0.01,-0.02,31,-73,27
0.057,0.021,9.830,+0.02,+0.06,-0.08,31,-73,27
0.057,0.021,9.830,-0.04,-0.01,-0.02,38,-72,30
0.057,0.021,9.830,+0.08,-0.01,-0.02,38,-72,30
0.057,0.021,9.830,-0.04,-0.01,-0.08,39,-69,33
0.057,-0.056,9.830,+0.02,-0.01,+0.04,39,-69,33
0.057,-0.056,9.830,+0.02,-0.13,+0.04,32,-74,30
0.057,-0.056,9.753,+0.08,+0.12,-0.08,32,-74,30
0.057,-0.056,9.753,+0.08,+0.12,+0.04,35,-69,35
0.057,0.021,9.753,-0.10,-0.07,+0.04,35,-69,35
0.057,0.021,9.753,+0.08,-0.01,+0.04,30,-78,28
0.057,0.021,9.753,+0.02,-0.01,+0.16,30,-78,28
0.057,0.021,9.753,-0.04,+0.06,+0.10,33,-73,29
-0.020,0.021,9.753,+0.02,-0.01,-0.02,33,-73,29
-0.020,0.021,9.753,+0.08,-0.01,-0.02,31,-73,29
-0.020,0.021,9.830,-0.04,-0.01,-0.08,31,-73,29
-0.020,0.021,9.830,+0.08,+0.18,+0.16,35,-75,23
-0.020,0.021,9.830,-0.04,-0.01,-0.02,35,-75,23
-0.020,0.021,9.830,+0.02,-0.07,-0.02,38,-70,38
0.057,0.021,9.830,-0.04,+0.06,+0.04,38,-70,38
-0.020,0.021,9.830,-0.10,-0.07,-0.02,37,-67,27
-0.020,0.021,9.830,+0.02,+0.06,-0.08,37,-67,27
-0.020,0.021,9.830,+0.08,-0.07,+0.10,35,-73,31
-0.020,0.021,9.830,-0.04,-0.07,-0.02,35,-73,31
-0.020,0.021,9.830,-0.04,-0.07,-0.08,35,-73,31
-0.020,0.021,9.830,-0.10,+0.12,-0.08,35,-73,31
-0.020,0.021,9.830,-0.04,-0.07,+0.04,41,-73,31
-0.020,0.021,9.830,+0.14,-0.07,+0.04,41,-73,31
-0.020,0.021,9.830,+0.02,-0.07,+0.04,33,-71,25
-0.020,0.021,9.830,+0.08,-0.01,-0.02,33,-71,25
-0.020,0.021,9.830,+0.02,+0.06,-0.02,38,-74,32
-0.020,0.021,9.830,-0.04,-0.07,+0.16,38,-74,32
-0.020,0.021,9.830,-0.16,+0.12,+0.16,31,-71,25
-0.020,0.021,9.830,-0.04,-0.07,-0.02,31,-71,25
-0.020,0.021,9.830,+0.02,-0.01,-0.02,36,-70,28
-0.020,0.021,9.753,-0.04,+0.06,-0.14,36,-70,28
-0.020,0.021,9.753,+0.02,-0.13,+0.04,31,-73,27
-0.020,-0.056,9.753,+0.02,-0.01,-0.02,31,-73,27
-0.020,0.021,9.753,+0.08,-0.13,+0.04,30,-74,28
-0.020,0.021,9.830,+0.02,-0.13,-0.02,30,-74,28
-0.020,0.021,9.830,-0.04,+0.06,-0.08,32,-76,26
-0.020,0.021,9.830,-0.04,-0.01,+0.04,32,-76,26
-0.020,-0.056,9.830,+0.02,+0.06,+0.04,33,-67,33
-0.020,0.021,9.830,+0.08,-0.01,+0.04,33,-67,33
0.057,0.021,9.830,+0.02,-0.13,-0.14,33,-73,31
0.057,-0.056,9.830,+0.02,+0.06,-0.02,33,-73,31
0.057,0.021,9.830,-0.04,+0.12,+0.04,35,-75,27
0.057,0.021,9.830,-0.04,-0.01,-0.08,35,-75,27
0.057,0.021,9.830,+0.02,-0.01,-0.08,35,-75,29
0.057,0.021,9.830,-0.04,-0.07,+0.10,35,-75,29
0.057,0.021,9.753,-0.04,-0.01,+0.04,36,-74,32
0.057,0.021,9.753,+0.02,-0.07,+0.04,36,-74,32
0.057,0.021,9.753,+0.02,+0.06,+0.10,33,-73,33
0.057,0.021,9.753,+0.02,-0.01,+0.04,33,-73,33
0.057,0.021,9.753,-0.04,+0.18,-0.08,36,-72,28
-0.020,0.021,9.753,-0.04,-0.01,+0.04,36,-72,28
-0.020,0.021,9.753,+0.14,-0.07,+0.04,36,-70,26
-0.020,0.021,9.753,-0.04,-0.13,-0.02,36,-70,26
-0.020,0.021,9.753,-0.10,-0.07,+0.04,29,-75,29
0.057,0.021,9.753,-0.04,-0.01,-0.02,29,-75,29
-0.020,-0.056,9.753,+0.02,+0.06,+0.10,37,-75,31
-0.020,-0.056,9.830,+0.02,-0.01,-0.02,37,-75,31
-0.020,-0.056,9.830,-0.10,+0.12,+0.04,37,-73,25
-0.020,-0.056,9.830,+0.08,-0.01,-0.02,37,-73,25
-0.020,0.021,9.830,+0.02,-0.07,+0.04,38,-72,32
-0.020,-0.056,9.830,+0.02,+0.06,+0.04,38,-72,32
-0.020,0.021,9.830,+0.02,-0.01,-0.02,34,-72,32
-0.020,0.021,9.830,+0.08,+0.12,+0.04,34,-72,32
-0.020,0.021,9.830,-0.04,-0.01,-0.02,34,-68,30
-0.020,0.021,9.830,+0.02,-0.07,-0.02,34,-68,30
0.057,0.021,9.830,-0.04,+0.06,+0.04,33,-69,29
0.057,0.021,9.830,-0.04,-0.01,+0.04,33,-69,29
0.057,0.021,9.830,-0.10,-0.01,-0.08,31,-71,31
0.057,0.021,9.830,-0.04,+0.06,-0.08,31,-71,31
0.057,0.021,9.830,-0.04,+0.06,+0.04,32,-68,30
-0.020,0.021,9.830,+0.02,+0.06,-0.08,32,-68,30
-0.020,0.021,9.830,+0.08,+0.12,+0.04,30,-74,28
-0.020,0.021,9.830,-0.10,+0.12,-0.02,30,-74,28
-0.020,0.021,9.830,+0.02,+0.12,+0.04,37,-75,29
-0.020,0.021,9.830,-0.10,+0.12,-0.08,37,-75,29
-0.020,0.021,9.830,-0.04,-0.07,-0.08,35,-71,29
-0.020,0.021,9.830,-0.10,-0.07,+0.04,35,-71,29
-0.020,0.021,9.830,+0.02,-0.07,+0.04,35,-73,29
-0.020,0.021,9.830,+0.02,-0.01,-0.02,35,-73,29
-0.020,0.021,9.830,+0.14,-0.01,-0.02,32,-70,36
-0.020,0.021,9.830,+0.08,-0.13,-0.14,32,-70,36
-0.020,0.021,9.830,+0.02,+0.06,-0.02,36,-68,30
-0.020,0.021,9.830,+0.02,-0.01,+0.10,36,-68,30
-0.020,0.021,9.830,-0.04,+0.12,-0.08,33,-73,29
-0.020,0.021,9.830,+0.02,-0.01,-0.02,33,-73,29
-0.020,0.021,9.830,-0.04,+0.06,+0.04,36,-76,26
-0.020,0.021,9.830,+0.02,+0.12,-0.14,36,-76,26
-0.020,0.021,9.830,+0.02,+0.06,+0.04,36,-76,28
-0.020,0.021,9.830,+0.02,-0.01,+0.04,36,-76,28
-0.020,0.021,9.830,-0.04,-0.01,-0.02,35,-75,25
-0.020,0.021,9.830,+0.02,+0.06,+0.10,35,-75,25
0.057,0.021,9.830,+0.08,-0.07,-0.08,34,-74,28
0.057,0.021,9.830,+0.02,-0.13,-0.02,34,-74,28
0.057,0.021,9.830,-0.04,-0.01,+0.04,36,-72,32
0.057,0.021,9.830,-0.04,-0.07,+0.04,36,-72,32
0.057,0.021,9.830,+0.02,+0.12,-0.02,33,-73,31
0.057,0.021,9.830,-0.04,-0.07,-0.02,33,-73,31
0.057,0.021,9.830,-0.10,-0.01,-0.08,33,-71,25
0.057,0.021,9.830,+0.02,+0.12,-0.02,33,-71,25
0.057,0.021,9.830,+0.02,+0.06,-0.08,31,-69,25
-0.020,0.021,9.830,-0.10,-0.07,+0.04,31,-69,25
-0.020,0.021,9.830,+0.02,+0.06,-0.02,28,-72,32
-0.020,0.021,9.830,-0.04,+0.06,-0.02,28,-72,32
-0.020,0.021,9.830,-0.04,+0.12,+0.04,34,-74,34
-0.020,0.021,9.830,+0.02,-0.13,+0.10,34,-74,34
-0.020,0.021,9.830,-0.04,-0.01,-0.02,32,-68,32
-0.020,0.021,9.830,+0.02,-0.07,+0.04,32,-68,32
-0.020,0.021,9.830,+0.02,-0.07,-0.02,38,-70,34
-0.020,0.021,9.830,-0.04,-0.01,-0.02,38,-70,34
-0.020,0.021,9.830,-0.10,+0.06,-0.08,36,-76,30
0.057,-0.056,9.830,+0.02,-0.01,-0.08,36,-76,30
0.057,-0.056,9.830,+0.08,+0.06,-0.02,34,-74,30
0.057,0.021,9.830,+0.02,-0.13,-0.02,34,-74,30
0.057,0.021,9.830,+0.08,-0.07,+0.10,30,-72,24
0.057,0.021,9.830,+0.08,-0.01,-0.02,30,-72,24
0.057,0.021,9.753,+0.02,+0.12,-0.02,32,-74,30
0.057,0.021,9.830,-0.04,-0.07,-0.02,32,-74,30
0.057,0.021,9.830,+0.02,+0.18,-0.02,29,-69,29
0.057,0.021,9.830,-0.04,-0.01,+0.04,29,-69,29
0.057,0.021,9.830,-0.04,+0.12,-0.02,30,-74,30
0.057,0.021,9.753,-0.04,+0.12,-0.02,30,-74,30
0.057,0.021,9.830,-0.10,-0.01,+0.10,37,-73,29
0.057,0.021,9.830,+0.14,-0.07,-0.02,37,-73,29
0.057,0.021,9.830,+0.02,+0.12,+0.10,33,-69,33
0.057,0.021,9.830,+0.08,+0.06,-0.08,33,-69,33
0.057,0.021,9.830,-0.04,+0.06,+0.04,37,-73,25
0.057,0.021,9.830,+0.02,-0.01,-0.02,37,-73,25
0.057,0.021,9.830,+0.02,-0.07,+0.10,35,-67,31
0.057,0.021,9.830,-0.04,-0.01,-0.02,35,-67,31
0.057,0.021,9.830,+0.02,+0.12,-0.14,36,-70,24
0.057,0.021,9.830,-0.04,-0.01,+0.04,36,-70,24
0.057,0.021,9.830,-0.04,-0.13,-0.02,32,-70,28
0.057,0.021,9.830,+0.08,-0.07,+0.04,32,-70,28
0.057,0.021,9.830,+0.02,-0.01,-0.02,33,-69,29
0.057,0.021,9.830,+0.14,+0.06,+0.04,33,-69,29
0.057,0.021,9.830,+0.02,-0.13,+0.10,31,-71,37
0.057,0.021,9.830,-0.04,-0.07,-0.02,31,-71,37
0.057,0.021,9.830,+0.02,+0.06,+0.04,32,-70,34
0.057,0.021,9.830,+0.02,+0.06,+0.10,32,-70,34
0.057,0.021,9.830,-0.10,-0.01,-0.08,35,-71,31
0.057,0.021,9.830,+0.02,-0.13,-0.02,35,-71,31
0.057,0.021,9.830,+0.02,-0.01,+0.10,32,-70,30
0.057,0.021,9.830,+0.08,+0.12,+0.04,32,-70,30
0.057,0.021,9.830,+0.08,-0.19,+0.04,37,-73,27
0.057,0.021,9.830,+0.02,-0.01,+0.04,37,-73,27
0.057,0.021,9.830,+0.02,+0.06,-0.02,31,-73,29
0.057,0.021,9.830,+0.08,-0.07,-0.08,31,-73,29
-0.020,0.021,9.830,+0.02,+0.06,-0.02,33,-69,33
0.057,0.021,9.907,+0.08,-0.01,-0.02,33,-69,33
0.057,0.021,9.830,+0.08,+0.12,-0.08,34,-72,30
0.057,0.021,9.830,+0.08,-0.01,-0.02,34,-72,30
0.057,0.021,9.907,-0.04,-0.01,+0.10,29,-71,27
0.057,0.021,9.830,+0.08,-0.01,+0.10,29,-71,27
0.057,0.021,9.830,-0.04,-0.07,+0.04,32,-70,30
-0.020,0.021,9.830,+0.02,+0.12,-0.08,32,-70,30
0.057,0.021,9.830,+0.08,+0.12,+0.04,30,-72,24
-0.020,0.021,9.830,+0.02,-0.19,-0.02,30,-72,24
-0.020,0.021,9.830,+0.08,+0.12,-0.02,35,-71,27
-0.020,0.021,9.830,-0.04,-0.01,-0.02,35,-71,27
-0.020,0.021,9.830,-0.04,+0.06,+0.04,33,-73,29
-0.020,0.021,9.830,+0.02,-0.07,+0.04,33,-73,29
-0.020,0.021,9.830,-0.10,+0.12,+0.04,37,-73,27
-0.020,0.021,9.830,-0.04,-0.07,-0.08,37,-73,27
-0.020,0.021,9.830,+0.02,+0.06,-0.08,31,-77,31
-0.020,0.021,9.830,+0.08,-0.07,+0.04,31,-77,31
0.057,0.021,9.830,+0.02,+0.06,-0.02,32,-72,26
0.057,0.021,9.830,-0.10,+0.06,+0.10,32,-72,26
-0.020,0.021,9.830,-0.10,-0.01,+0.04,39,-71,35
-0.020,0.021,9.830,-0.04,+0.12,-0.02,39,-71,35
-0.020,0.021,9.830,-0.04,-0.01,-0.02,33,-73,25
-0.020,0.021,9.830,-0.04,-0.07,-0.08,33,-73,25
-0.020,0.021,9.830,-0.10,-0.01,-0.02,35,-75,29
-0.020,0.021,9.830,+0.08,+0.12,-0.02,35,-75,29
-0.020,-0.056,9.830,-0.04,+0.06,+0.04,35,-73,29
-0.020,-0.056,9.830,+0.02,+0.18,-0.02,35,-73,29
-0.020,-0.056,9.830,+0.08,-0.01,-0.08,36,-76,26
-0.020,-0.056,9.753,+0.02,-0.01,+0.04,36,-76,26
-0.020,-0.056,9.753,+0.02,+0.06,-0.02,32,-76,26
-0.020,-0.056,9.830,+0.02,-0.01,+0.04,32,-76,26
-0.020,-0.056,9.753,-0.04,-0.01,-0.02,36,-70,28
-0.020,-0.056,9.753,-0.04,-0.01,+0.10,36,-70,28
-0.020,-0.056,9.830,+0.02,-0.07,+0.04,30,-72,32
-0.020,0.021,9.830,-0.04,-0.01,+0.04,30,-72,32
-0.020,0.021,9.830,-0.10,+0.06,-0.08,34,-70,30
-0.020,0.021,9.830,+0.02,-0.01,-0.02,34,-70,30
-0.020,0.021,9.830,+0.02,-0.01,-0.08,37,-69,29
-0.020,0.021,9.830,+0.02,+0.06,+0.10,37,-69,29
-0.020,0.021,9.830,+0.02,-0.01,+0.04,35,-67,33
-0.020,0.021,9.830,+0.02,+0.06,+0.10,35,-67,33
-0.020,0.021,9.830,-0.04,-0.07,-0.08,32,-72,24
-0.020,0.021,9.830,+0.02,+0.06,-0.02,32,-72,24
-0.020,0.021,9.830,-0.04,-0.07,+0.10,39,-71,29
-0.020,0.021,9.830,+0.02,+0.12,-0.08,39,-71,29
-0.020,0.021,9.830,+0.02,-0.01,+0.10,35,-71,31
-0.020,0.021,9.753,+0.02,+0.06,+0.04,35,-71,31
-0.020,0.021,9.830,-0.04,+0.12,+0.04,36,-72,30
-0.020,0.021,9.830,-0.04,+0.06,-0.02,36,-72,30
0.057,0.021,9.830,-0.10,+0.06,+0.04,34,-70,28
0.057,0.021,9.830,-0.10,+0.06,+0.04,34,-70,28
0.057,0.021,9.830,+0.08,-0.01,-0.14,35,-73,29
-0.020,0.021,9.830,-0.04,+0.12,+0.10,35,-73,29
-0.020,0.021,9.830,+0.02,+0.12,-0.14,37,-73,31
-0.020,0.021,9.830,+0.02,+0.06,+0.04,37,-73,31
-0.020,0.021,9.830,+0.08,-0.01,-0.02,33,-71,35
-0.020,0.021,9.830,+0.02,-0.07,+0.04,33,-71,35
-0.020,0.021,9.830,-0.10,-0.01,-0.02,33,-71,29
-0.020,0.021,9.830,+0.02,+0.18,+0.10,33,-71,29
-0.020,0.021,9.830,-0.10,+0.06,-0.02,31,-71,29
-0.020,0.021,9.830,-0.04,-0.07,+0.04,31,-71,29
-0.020,0.021,9.830,-0.04,+0.06,-0.02,33,-75,33
-0.020,0.021,9.830,+0.08,-0.01,-0.02,33,-75,33
-0.020,0.021,9.830,+0.02,-0.07,-0.02,34,-72,30
-0.020,0.021,9.830,+0.08,-0.01,-0.02,34,-72,30
-0.020,0.021,9.830,-0.04,-0.07,-0.02,37,-73,29
-0.020,0.021,9.830,+0.08,+0.06,-0.02,37,-73,29
-0.020,0.021,9.830,+0.02,-0.07,-0.14,35,-73,33
-0.020,0.021,9.830,+0.02,-0.13,-0.02,35,-73,33
0.057,0.021,9.830,-0.04,-0.07,-0.02,33,-73,25
-0.020,0.021,9.830,-0.10,-0.01,+0.04,33,-73,25
-0.020,0.021,9.830,+0.02,+0.06,+0.04,31,-73,31
0.057,0.021,9.830,-0.10,-0.07,-0.02,31,-73,31
0.057,0.021,9.830,-0.10,-0.01,+0.10,37,-65,27
0.057,-0.056,9.830,+0.14,-0.01,+0.04,37,-65,27
0.057,0.021,9.830,+0.14,-0.01,+0.10,33,-71,31
-0.020,0.021,9.830,-0.04,-0.07,+0.04,33,-71,31
-0.020,0.021,9.830,-0.04,+0.12,-0.02,30,-68,28
-0.020,0.021,9.830,+0.08,-0.01,-0.02,30,-68,28
-0.020,0.021,9.830,+0.08,+0.06,+0.04,33,-73,29
-0.020,0.021,9.907,-0.04,-0.07,-0.02,33,-73,29
-0.020,0.021,9.907,+0.02,-0.01,+0.04,35,-73,27
-0.020,0.021,9.830,+0.02,-0.01,+0.04,35,-73,27
-0.020,0.021,9.830,+0.02,+0.06,+0.10,32,-68,26
-0.020,0.021,9.830,-0.04,+0.06,+0.04,32,-68,26
0.057,0.021,9.907,+0.08,-0.01,+0.04,36,-72,24
0.057,0.021,9.907,+0.02,-0.01,+0.10,36,-72,24
0.057,0.021,9.830,+0.02,-0.01,+0.04,31,-73,27
0.057,0.021,9.830,+0.02,+0.06,-0.08,31,-73,27
0.057,0.021,9.830,+0.02,-0.01,+0.04,27,-73,31
0.057,0.021,9.830,+0.02,+0.06,-0.02,27,-73,31
-0.020,0.021,9.830,+0.02,-0.07,-0.02,33,-71,29
-0.020,0.021,9.830,-0.04,-0.07,-0.02,33,-71,29
-0.020,0.021,9.830,-0.10,-0.07,-0.02,34,-70,26
-0.020,0.021,9.830,-0.04,-0.01,+0.04,34,-70,26
0.057,0.021,9.830,+0.08,+0.06,-0.02,34,-72,26
0.057,0.021,9.830,+0.02,+0.12,-0.02,34,-72,26
0.057,0.021,9.830,+0.08,-0.07,+0.10,35,-73,31
0.057,0.021,9.830,-0.04,+0.12,+0.04,35,-73,31
0.057,0.021,9.830,-0.10,-0.13,+0.04,31,-71,31
0.057,0.021,9.830,+0.02,+0.06,-0.08,31,-71,31
0.057,0.021,9.830,+0.02,-0.07,+0.10,33,-71,33
0.057,0.021,9.830,-0.10,-0.01,-0.02,33,-71,33
-0.020,0.021,9.830,+0.08,-0.01,-0.08,30,-72,26
-0.020,0.021,9.830,+0.08,+0.18,-0.08,30,-72,26
-0.020,-0.056,9.830,-0.10,+0.06,-0.02,33,-69,27
-0.020,0.021,9.830,+0.08,+0.12,-0.02,33,-69,27
-0.020,-0.056,9.830,-0.04,-0.19,-0.08,38,-76,26
-0.020,0.021,9.830,+0.02,+0.12,-0.14,38,-76,26
-0.020,-0.056,9.830,+0.08,+0.12,-0.08,32,-68,30
-0.020,0.021,9.830,+0.08,+0.12,-0.02,32,-68,30
-0.020,-0.056,9.830,+0.14,-0.01,-0.02,39,-69,25
-0.020,0.021,9.830,-0.10,-0.01,+0.04,39,-69,25
-0.020,0.021,9.830,-0.10,+0.12,+0.04,28,-72,30
-0.020,0.021,9.830,+0.02,+0.18,+0.04,28,-72,30
-0.020,0.021,9.830,+0.08,-0.01,-0.08,30,-70,30
-0.020,0.021,9.830,-0.04,-0.01,-0.02,30,-70,30
-0.020,0.021,9.830,-0.04,-0.01,+0.10,34,-72,32
-0.020,0.021,9.830,-0.04,+0.06,+0.04,34,-72,32
-0.020,0.021,9.830,+0.02,+0.06,-0.08,37,-73,33
-0.020,0.021,9.830,-0.04,+0.06,-0.02,37,-73,33
-0.020,0.021,9.830,-0.04,-0.07,-0.02,35,-77,31
-0.020,0.021,9.830,-0.04,-0.07,+0.04,35,-77,31
0.057,0.021,9.830,+0.02,+0.06,-0.02,31,-81,29
-0.020,0.021,9.830,+0.02,-0.07,-0.14,31,-81,29
0.057,0.021,9.830,-0.10,+0.06,-0.08,32,-76,28
0.057,0.021,9.830,-0.10,-0.01,-0.02,32,-76,28
0.057,0.021,9.907,+0.02,+0.12,-0.02,33,-69,31
0.057,0.021,9.907,-0.04,+0.12,+0.10,33,-69,31
0.057,0.021,9.907,+0.08,+0.06,+0.04,35,-69,29
0.057,0.021,9.907,-0.04,+0.12,+0.10,35,-69,29
0.057,0.021,9.907,-0.04,-0.01,-0.08,30,-76,28
0.057,0.021,9.907,+0.02,-0.01,-0.02,30,-76,28
