seq,gx,gy,gz,ax,ay,az,mx,my,mz
26351,0.003,-0.005,-0.062,-0.00,-0.03,-9.84,-16,-4,2
26352,0.064,-0.005,-0.062,-0.00,-0.03,-9.84,-17,-3,7
26353,-0.058,0.056,-0.062,-0.00,-0.03,-9.84,-17,-3,7
26354,0.003,-0.005,-0.123,0.07,-0.03,-9.84,-14,-6,4
26355,0.064,-0.005,-0.001,-0.00,-0.03,-9.84,-14,-6,4
26356,-0.058,-0.005,0.060,-0.00,-0.03,-9.84,-8,-4,6
26357,-0.119,-0.005,-0.062,-0.00,-0.03,-9.84,-8,-4,6
26358,-0.058,-0.005,0.060,-0.00,-0.03,-9.84,-8,-8,8
26359,0.125,-0.066,-0.062,-0.00,-0.03,-9.84,-8,-8,8
26360,0.064,0.056,0.121,-0.00,-0.03,-9.84,-6,-2,8
26361,-0.119,-0.066,-0.062,-0.00,-0.03,-9.84,-6,-2,8
26362,0.064,-0.005,-0.062,-0.00,-0.03,-9.84,-7,-3,1
26363,-0.058,-0.066,-0.001,-0.00,-0.03,-9.84,-7,-3,1
26364,0.125,-0.127,-0.001,-0.00,-0.03,-9.84,-8,-6,6
26365,0.064,-0.005,-0.062,-0.00,-0.03,-9.84,-8,-6,6
26366,0.003,0.056,-0.062,-0.00,-0.03,-9.84,-15,-5,3
26367,0.003,0.056,0.060,-0.00,-0.03,-9.84,-15,-5,3
26368,0.003,0.117,-0.123,-0.00,-0.03,-9.77,-7,-5,-1
26369,-0.119,0.056,-0.001,-0.00,0.05,-9.77,-7,-5,-1
26370,0.003,-0.005,0.060,-0.00,0.05,-9.84,-16,-4,4
26371,0.064,-0.127,-0.001,-0.00,0.05,-9.84,-16,-4,4
26372,0.003,-0.127,-0.001,-0.00,0.05,-9.84,-9,-9,5
26373,0.003,-0.005,-0.062,-0.00,0.05,-9.84,-9,-9,5
26374,-0.058,0.056,-0.062,-0.00,0.05,-9.84,-8,0,4
26375,0.003,0.056,-0.001,-0.00,0.05,-9.84,-8,0,4
26376,0.003,0.056,0.060,-0.00,0.05,-9.84,-15,-7,1
26377,-0.058,-0.005,-0.001,-0.00,0.05,-9.84,-15,-7,1
26378,0.003,-0.066,-0.001,-0.00,-0.03,-9.84,-12,-6,0
26379,0.064,-0.005,0.060,-0.00,0.05,-9.84,-12,-6,0
26380,0.003,-0.066,-0.001,-0.00,-0.03,-9.84,-12,-4,0
26381,0.003,-0.005,-0.001,-0.00,-0.03,-9.77,-12,-4,0
26382,0.003,-0.005,-0.001,-0.00,-0.03,-9.77,-13,-3,1
26383,0.125,-0.005,0.060,-0.00,-0.03,-9.77,-13,-3,1
26384,0.064,-0.066,0.121,-0.00,-0.03,-9.84,-10,-2,2
26385,0.125,-0.005,-0.001,-0.00,-0.03,-9.77,-10,-2,2
26386,-0.058,0.117,0.121,-0.00,-0.03,-9.77,-13,-11,1
26387,0.003,0.117,0.060,-0.00,-0.03,-9.77,-13,-11,1
26388,0.125,0.117,-0.062,-0.00,-0.03,-9.77,-14,-2,0
26389,0.003,-0.066,0.060,-0.00,-0.03,-9.77,-14,-2,0
26390,0.003,-0.066,0.060,-0.00,-0.03,-9.84,-8,-6,4
26391,0.064,-0.005,-0.062,-0.00,-0.03,-9.84,-8,-6,4
26392,-0.119,-0.127,-0.001,-0.00,-0.03,-9.84,-6,-4,2
26393,-0.119,-0.005,0.121,-0.00,-0.03,-9.84,-6,-4,2
26394,-0.058,-0.005,-0.123,-0.00,-0.03,-9.84,-10,-4,10
26395,0.003,-0.066,-0.062,-0.00,0.05,-9.84,-10,-4,10
26396,-0.119,0.056,0.060,-0.00,0.05,-9.84,-13,-7,3
26397,0.064,-0.005,-0.001,-0.00,0.05,-9.84,-13,-7,3
26398,0.003,-0.005,-0.001,-0.00,0.05,-9.77,-5,-5,1
26399,0.003,-0.005,-0.001,-0.00,0.05,-9.77,-5,-5,1
26400,0.064,0.056,-0.123,-0.00,0.05,-9.77,-10,-6,2
26401,0.003,-0.005,-0.062,-0.00,0.05,-9.84,-10,-6,2
26402,-0.058,0.117,-0.001,-0.00,0.05,-9.84,-11,-1,3
26403,0.003,-0.066,-0.001,-0.00,0.05,-9.84,-11,-1,3
26404,0.064,-0.127,0.121,-0.00,0.05,-9.84,-7,3,-1
26405,0.003,0.056,-0.062,-0.00,0.05,-9.77,-7,3,-1
26406,-0.058,-0.005,-0.123,-0.00,0.05,-9.84,-14,-2,2
26407,0.064,0.117,-0.062,-0.00,0.05,-9.84,-14,-2,2
26408,0.003,-0.066,0.060,-0.00,-0.03,-9.77,-6,-8,4
26409,-0.058,-0.005,-0.001,-0.00,0.05,-9.77,-6,-8,4
26410,0.003,-0.066,0.060,-0.00,0.05,-9.77,-15,-5,3
26411,0.064,0.056,-0.062,-0.00,0.05,-9.84,-15,-5,3
26412,-0.058,-0.005,-0.001,-0.00,0.05,-9.84,-13,-3,1
26413,0.064,-0.005,-0.001,-0.00,0.05,-9.84,-13,-3,1
26414,0.064,-0.005,0.060,-0.00,-0.03,-9.84,-14,-4,0
26415,-0.119,0.056,-0.123,-0.00,0.05,-9.84,-14,-4,0
26416,0.064,-0.005,-0.001,-0.00,0.05,-9.84,-13,-1,3
26417,0.064,-0.066,0.060,-0.00,0.05,-9.84,-13,-1,3
26418,0.003,-0.066,-0.001,-0.00,0.05,-9.84,-6,-4,4
26419,0.064,0.056,-0.123,-0.00,0.05,-9.84,-6,-4,4
26420,0.003,-0.005,-0.001,-0.00,0.05,-9.84,-11,-3,1
26421,0.064,0.056,0.060,-0.00,-0.03,-9.84,-11,-3,1
26422,-0.058,-0.066,-0.001,-0.00,-0.03,-9.84,-14,0,-2
26423,0.003,-0.066,-0.062,-0.08,-0.03,-9.84,-14,0,-2
26424,0.064,-0.066,-0.001,-0.00,-0.03,-9.84,-14,-2,-8
26425,0.003,-0.005,0.121,-0.00,0.05,-9.84,-14,-2,-8
26426,0.003,0.056,0.060,-0.00,-0.03,-9.84,-9,-1,1
26427,-0.180,-0.005,0.060,-0.00,-0.03,-9.84,-9,-1,1
26428,0.125,-0.005,-0.001,-0.00,-0.03,-9.84,-9,-3,3
26429,0.125,-0.066,0.060,-0.00,0.05,-9.84,-9,-3,3
26430,0.003,0.117,-0.001,-0.00,0.05,-9.84,-6,-8,4
26431,0.125,-0.005,-0.001,-0.00,-0.03,-9.84,-6,-8,4
26432,0.125,-0.005,-0.123,-0.00,-0.03,-9.84,-9,-3,7
26433,-0.058,-0.005,-0.001,-0.00,-0.03,-9.84,-9,-3,7
26434,-0.058,0.056,-0.001,-0.00,-0.03,-9.84,-11,-3,3
26435,0.003,-0.127,0.060,-0.00,-0.03,-9.84,-11,-3,3
26436,0.003,-0.066,0.121,-0.00,-0.03,-9.84,-10,-6,6
26437,0.064,0.056,-0.062,-0.00,-0.03,-9.84,-10,-6,6
26438,0.064,0.117,-0.123,-0.00,-0.03,-9.84,-7,-3,1
26439,-0.058,-0.005,-0.001,-0.00,-0.03,-9.84,-7,-3,1
26440,0.064,-0.005,-0.062,-0.00,0.05,-9.84,-6,-8,2
26441,0.064,-0.005,-0.001,-0.00,0.05,-9.84,-6,-8,2
26442,0.003,0.056,0.121,-0.00,-0.03,-9.84,-14,-6,2
26443,0.003,-0.127,-0.001,-0.00,-0.03,-9.84,-14,-6,2
26444,0.186,0.056,-0.062,-0.00,-0.03,-9.84,-15,-3,1
26445,0.003,-0.005,-0.062,-0.00,-0.03,-9.84,-15,-3,1
26446,0.125,0.056,0.060,-0.00,-0.03,-9.84,-12,-4,0
26447,0.003,-0.066,0.060,-0.00,-0.03,-9.84,-12,-4,0
26448,0.003,0.056,-0.062,-0.00,-0.03,-9.84,-7,3,3
26449,0.064,-0.005,-0.001,-0.00,-0.03,-9.84,-7,3,3
26450,0.003,-0.188,0.121,-0.00,-0.03,-9.84,-7,-1,-1
26451,0.003,-0.127,-0.001,0.07,-0.03,-9.84,-7,-1,-1
26452,-0.058,-0.066,-0.001,0.07,0.05,-9.84,-3,-7,3
26453,0.064,-0.005,0.060,0.07,0.05,-9.77,-3,-7,3
26454,-0.058,-0.005,-0.001,-0.00,0.05,-9.77,-10,-8,0
26455,0.003,-0.066,-0.062,-0.00,-0.03,-9.77,-10,-8,0
26456,-0.119,-0.127,-0.001,-0.00,-0.03,-9.77,-13,-1,-3
26457,-0.119,-0.005,-0.001,-0.00,-0.03,-9.77,-13,-1,-3
26458,0.003,-0.066,-0.062,-0.00,-0.03,-9.84,-6,-2,-4
26459,0.064,-0.066,-0.001,-0.00,-0.03,-9.84,-6,-2,-4
26460,-0.058,-0.005,0.060,-0.00,-0.03,-9.84,-12,-4,0
26461,0.003,0.117,-0.001,-0.00,-0.03,-9.84,-12,-4,0
26462,0.003,0.117,0.060,-0.00,-0.03,-9.84,-5,-5,3
26463,0.064,0.056,0.060,-0.00,-0.03,-9.84,-5,-5,3
26464,-0.058,-0.066,-0.001,-0.00,-0.03,-9.84,-9,3,9
26465,-0.119,-0.005,-0.062,-0.00,-0.03,-9.84,-9,3,9
26466,-0.058,-0.066,-0.062,-0.00,-0.03,-9.84,-8,-6,8
26467,0.003,-0.066,-0.001,-0.00,-0.03,-9.84,-8,-6,8
26468,0.003,-0.066,0.060,-0.00,-0.03,-9.77,-9,-15,-1
26469,0.003,0.056,0.060,-0.00,-0.03,-9.77,-9,-15,-1
26470,0.003,-0.005,-0.062,-0.00,-0.03,-9.77,-11,-3,3
26471,-0.058,-0.005,0.060,-0.00,-0.03,-9.84,-11,-3,3
26472,-0.058,0.056,0.060,-0.00,-0.03,-9.77,-8,-4,2
26473,0.064,-0.005,-0.062,-0.00,-0.03,-9.77,-8,-4,2
26474,0.003,-0.005,0.060,-0.00,-0.03,-9.77,-6,-2,8
26475,0.003,0.056,0.060,-0.00,-0.03,-9.77,-6,-2,8
26476,0.125,-0.005,0.060,-0.00,-0.03,-9.77,-8,-2,-2
26477,0.003,0.117,-0.001,-0.00,-0.03,-9.77,-8,-2,-2
26478,0.064,-0.005,0.060,-0.00,-0.03,-9.77,-6,-6,-2
26479,-0.058,-0.005,-0.001,-0.00,0.05,-9.77,-6,-6,-2
26480,0.125,-0.005,-0.062,-0.00,0.05,-9.77,-12,0,4
26481,0.003,-0.127,-0.001,-0.00,-0.03,-9.77,-12,0,4
26482,-0.119,-0.066,-0.001,-0.00,-0.03,-9.77,-5,-3,3
26483,0.003,-0.005,-0.001,-0.00,-0.03,-9.77,-5,-3,3
26484,0.003,-0.005,-0.001,0.07,-0.03,-9.77,-7,-3,1
26485,0.125,0.056,-0.062,0.07,-0.03,-9.77,-7,-3,1
26486,-0.119,-0.005,-0.001,0.07,-0.03,-9.77,-11,-3,1
26487,0.003,-0.066,-0.001,-0.00,-0.03,-9.77,-11,-3,1
26488,0.003,-0.066,-0.062,-0.00,-0.03,-9.77,-7,-5,9
26489,-0.058,-0.005,-0.123,-0.00,-0.03,-9.77,-7,-5,9
26490,0.003,-0.005,-0.001,-0.00,-0.03,-9.77,-7,1,5
26491,-0.119,-0.005,-0.062,-0.00,-0.03,-9.77,-7,1,5
26492,-0.058,-0.005,-0.001,-0.00,-0.03,-9.77,-5,1,1
26493,0.125,-0.005,0.060,-0.00,-0.03,-9.84,-5,1,1
26494,0.003,0.056,0.060,-0.00,-0.03,-9.84,-8,-8,6
26495,-0.058,-0.005,0.060,-0.00,-0.03,-9.84,-8,-8,6
26496,0.003,-0.005,-0.001,-0.00,-0.03,-9.77,-10,-6,2
26497,0.003,-0.005,-0.062,-0.00,-0.03,-9.77,-10,-6,2
26498,-0.058,-0.005,-0.001,-0.00,-0.03,-9.77,-15,-1,3
26499,-0.058,-0.066,0.182,-0.00,-0.03,-9.84,-15,-1,3
26500,0.003,-0.005,-0.062,-0.00,-0.03,-9.84,-16,-6,-4
26501,-0.058,-0.066,-0.001,0.07,-0.03,-9.84,-16,-6,-4
26502,0.003,0.056,-0.001,-0.00,0.05,-9.84,-10,-2,2
26503,-0.119,0.056,-0.001,-0.00,0.05,-9.84,-10,-2,2
26504,-0.058,-0.005,0.121,-0.00,-0.03,-9.84,-18,-4,2
26505,0.064,-0.127,0.060,-0.00,-0.03,-9.84,-18,-4,2
26506,0.064,-0.005,0.060,-0.00,0.05,-9.84,-8,-2,0
26507,0.003,-0.005,-0.062,-0.00,0.05,-9.84,-8,-2,0
26508,0.003,-0.127,-0.001,-0.00,0.05,-9.84,-10,-10,4
26509,0.064,0.056,-0.001,-0.00,0.05,-9.77,-10,-10,4
26510,0.003,-0.005,-0.123,-0.00,0.05,-9.77,-11,-7,3
26511,0.064,-0.127,0.060,-0.00,0.05,-9.77,-11,-7,3
26512,0.125,-0.005,-0.062,-0.00,0.05,-9.77,-16,-6,0
26513,0.003,-0.005,-0.001,-0.00,0.05,-9.77,-16,-6,0
26514,0.125,-0.005,0.060,-0.00,0.05,-9.77,-8,-4,-2
26515,-0.119,0.056,-0.001,-0.00,0.05,-9.77,-8,-4,-2
26516,0.003,0.056,-0.062,-0.00,0.05,-9.77,-11,-9,11
26517,-0.058,0.117,-0.001,-0.00,0.05,-9.77,-11,-9,11
26518,0.064,0.056,0.060,-0.00,0.05,-9.77,-9,-5,5
26519,0.003,0.056,-0.062,-0.00,0.05,-9.77,-9,-5,5
26520,0.064,-0.066,-0.001,-0.00,0.05,-9.77,-10,-6,0
26521,0.003,-0.066,-0.001,-0.00,0.05,-9.77,-10,-6,0
26522,-0.058,-0.005,-0.062,-0.00,0.05,-9.84,-12,0,-2
26523,-0.058,-0.066,-0.062,-0.00,0.05,-9.84,-12,0,-2
26524,0.125,-0.005,-0.001,0.07,0.05,-9.84,-14,-2,2
26525,0.125,0.056,-0.001,-0.00,0.05,-9.84,-14,-2,2
26526,0.003,0.056,-0.123,-0.00,0.05,-9.84,-10,-4,8
26527,0.003,0.056,-0.062,-0.00,0.05,-9.84,-10,-4,8
26528,-0.058,-0.066,0.060,-0.00,0.05,-9.84,-13,-5,7
26529,0.003,0.056,-0.001,-0.00,0.05,-9.84,-13,-5,7
26530,-0.058,-0.127,-0.062,-0.00,0.05,-9.84,-12,-6,0
26531,-0.058,-0.005,-0.062,-0.00,0.05,-9.84,-12,-6,0
26532,0.064,-0.005,-0.001,-0.00,0.05,-9.84,-9,-3,5
26533,-0.058,0.117,-0.001,-0.00,0.05,-9.77,-9,-3,5
26534,-0.058,0.117,-0.001,0.07,0.05,-9.77,-9,-1,1
26535,0.064,-0.005,0.121,-0.00,0.05,-9.77,-9,-1,1
26536,-0.058,0.117,-0.062,-0.00,0.05,-9.77,-14,-6,8
26537,0.064,0.056,0.060,-0.00,0.05,-9.77,-14,-6,8
26538,0.003,-0.066,-0.001,-0.00,0.05,-9.77,-8,-8,6
26539,0.003,-0.005,-0.062,-0.00,-0.03,-9.77,-8,-8,6
26540,-0.119,-0.005,0.060,-0.00,-0.03,-9.77,-12,-2,0
26541,0.003,-0.066,-0.062,-0.00,-0.03,-9.77,-12,-2,0
26542,-0.058,0.056,-0.001,-0.00,-0.03,-9.77,-8,-6,4
26543,-0.058,0.117,-0.062,-0.00,-0.03,-9.77,-8,-6,4
26544,-0.058,-0.005,-0.001,-0.00,-0.03,-9.77,-7,-9,5
26545,0.003,-0.066,0.060,-0.00,-0.03,-9.77,-7,-9,5
26546,0.003,0.117,-0.062,-0.00,-0.03,-9.77,-13,1,-3
26547,0.003,-0.005,0.060,-0.00,-0.03,-9.77,-13,1,-3
26548,0.003,0.056,0.060,-0.00,-0.03,-9.77,-6,6,4
26549,0.003,-0.066,0.121,-0.00,-0.03,-9.77,-6,6,4
26550,0.003,-0.005,-0.062,-0.00,-0.03,-9.77,-11,-9,3
26551,0.064,-0.005,-0.001,-0.00,-0.03,-9.77,-11,-9,3
26552,-0.058,0.117,-0.062,-0.00,-0.03,-9.77,-6,2,8
26553,0.003,-0.188,0.121,-0.00,-0.03,-9.77,-6,2,8
26554,0.064,-0.005,0.060,-0.00,-0.11,-9.77,-13,3,1
26555,0.064,0.056,0.060,-0.00,-0.03,-9.77,-13,3,1
26556,0.003,-0.005,-0.062,-0.00,-0.03,-9.77,-13,-9,1
26557,0.003,-0.005,-0.062,-0.00,-0.03,-9.77,-13,-9,1
26558,-0.058,0.117,-0.001,-0.00,-0.03,-9.77,-14,-2,-2
26559,0.003,-0.005,-0.001,-0.00,-0.03,-9.77,-14,-2,-2
26560,0.064,-0.005,-0.062,-0.00,0.05,-9.77,-15,-3,7
26561,0.003,-0.066,0.060,-0.00,0.05,-9.77,-15,-3,7
26562,-0.119,0.056,-0.001,-0.00,0.05,-9.77,-8,-4,0
26563,-0.058,0.056,-0.062,-0.00,0.05,-9.77,-8,-4,0
26564,-0.119,0.117,-0.001,-0.00,0.05,-9.77,-7,-5,-3
26565,0.003,-0.005,-0.062,-0.00,0.05,-9.77,-7,-5,-3
26566,-0.302,0.117,-0.001,-0.00,0.05,-9.77,-9,-3,1
26567,-0.119,0.056,-0.062,-0.00,-0.03,-9.77,-9,-3,1
26568,0.003,0.117,-0.001,-0.00,-0.03,-9.77,-2,-4,-2
26569,0.003,0.056,-0.062,-0.00,-0.03,-9.77,-2,-4,-2
26570,0.003,-0.005,0.121,-0.00,-0.03,-9.77,-12,-8,8
26571,0.125,-0.066,-0.001,-0.00,-0.03,-9.77,-12,-8,8
26572,0.125,-0.127,-0.001,-0.00,-0.03,-9.77,-12,-2,6
26573,0.186,-0.127,0.121,-0.00,-0.03,-9.77,-12,-2,6
26574,0.125,0.056,-0.001,-0.00,-0.03,-9.77,-11,-7,1
26575,-0.058,-0.066,0.121,-0.00,-0.03,-9.77,-11,-7,1
26576,-0.058,0.056,0.060,-0.00,-0.03,-9.77,-9,-3,5
26577,-0.058,-0.127,0.060,-0.00,-0.03,-9.77,-9,-3,5
26578,0.064,-0.066,0.060,-0.00,-0.03,-9.77,-9,-7,5
26579,0.125,-0.005,-0.001,-0.00,0.05,-9.77,-9,-7,5
26580,0.125,0.056,0.060,-0.00,0.05,-9.77,-15,-5,3
26581,0.125,-0.005,-0.001,-0.00,0.05,-9.77,-15,-5,3
26582,0.186,-0.066,-0.001,-0.00,0.05,-9.77,-9,-1,3
26583,0.125,-0.066,-0.001,-0.00,0.05,-9.77,-9,-1,3
26584,0.125,-0.005,0.060,-0.00,0.05,-9.84,-14,-2,6
26585,0.003,0.056,-0.062,-0.00,0.05,-9.84,-14,-2,6
26586,-0.058,-0.127,-0.062,-0.00,0.05,-9.84,-7,-7,3
26587,-0.058,-0.066,-0.001,-0.00,0.05,-9.84,-7,-7,3
26588,0.064,-0.066,0.060,-0.00,0.05,-9.84,-9,-1,-1
26589,-0.119,0.117,0.060,-0.00,0.05,-9.84,-9,-1,-1
26590,0.003,-0.066,0.060,-0.00,-0.03,-9.84,-14,-2,2
26591,0.125,0.117,-0.001,-0.00,-0.03,-9.84,-14,-2,2
26592,0.064,0.056,-0.062,-0.00,-0.03,-9.77,-8,-2,0
26593,0.125,-0.005,-0.062,-0.00,-0.03,-9.77,-8,-2,0
26594,0.064,-0.005,-0.062,-0.00,-0.03,-9.77,-9,-9,1
26595,0.064,-0.005,0.060,-0.00,-0.03,-9.77,-9,-9,1
26596,0.003,-0.005,-0.001,-0.00,-0.03,-9.77,-12,0,2
26597,0.003,0.056,-0.123,-0.00,-0.03,-9.77,-12,0,2
26598,0.003,0.056,-0.062,-0.00,-0.03,-9.77,-10,-4,4
26599,0.003,0.117,-0.001,-0.00,-0.03,-9.77,-10,-4,4
26600,0.003,0.117,-0.123,-0.00,-0.03,-9.77,-12,-2,2
26601,-0.058,-0.005,0.121,-0.00,-0.03,-9.77,-12,-2,2
26602,0.064,-0.005,-0.001,-0.00,-0.03,-9.77,-9,-3,3
26603,0.003,0.056,-0.062,-0.00,0.05,-9.77,-9,-3,3
26604,0.003,-0.005,-0.062,-0.00,0.05,-9.77,-12,-2,2
26605,0.125,-0.005,-0.001,-0.00,-0.03,-9.77,-12,-2,2
26606,0.003,-0.005,-0.001,-0.00,0.05,-9.77,-12,-4,4
26607,-0.058,-0.005,0.060,-0.00,0.05,-9.84,-12,-4,4
26608,0.064,0.056,-0.062,-0.00,0.05,-9.84,-15,-7,-1
26609,0.003,-0.005,-0.062,-0.00,0.05,-9.84,-15,-7,-1
26610,-0.058,-0.005,-0.001,-0.00,0.05,-9.84,-14,0,2
26611,0.003,-0.005,-0.001,-0.00,0.05,-9.84,-14,0,2
26612,0.003,0.117,-0.062,-0.00,0.05,-9.84,-12,-6,6
26613,0.064,-0.005,0.060,-0.00,-0.03,-9.84,-12,-6,6
26614,0.003,-0.127,-0.001,-0.00,-0.03,-9.84,-9,-3,3
26615,-0.058,-0.066,-0.062,-0.08,-0.03,-9.84,-9,-3,3
26616,-0.058,0.056,0.060,-0.08,-0.03,-9.84,-13,-3,-1
26617,0.003,-0.005,-0.001,-0.08,-0.03,-9.84,-13,-3,-1
26618,-0.119,-0.066,-0.001,-0.08,-0.03,-9.84,-10,0,2
26619,0.064,-0.005,-0.123,-0.08,-0.03,-9.84,-10,0,2
26620,0.125,-0.127,-0.001,-0.08,-0.03,-9.84,-11,-5,3
26621,0.125,-0.066,-0.001,-0.08,-0.03,-9.84,-11,-5,3
26622,0.186,-0.066,-0.001,-0.00,-0.03,-9.84,-10,-2,4
26623,0.064,-0.005,-0.062,-0.00,-0.03,-9.84,-10,-2,4
26624,-0.058,-0.005,0.060,-0.00,-0.03,-9.84,-17,-5,3
26625,0.064,-0.066,-0.001,-0.00,-0.03,-9.84,-17,-5,3
26626,0.064,-0.005,-0.062,-0.00,-0.03,-9.84,-12,2,2
26627,0.064,0.117,-0.001,-0.00,-0.03,-9.84,-12,2,2
26628,0.003,-0.005,0.060,-0.00,-0.03,-9.84,-13,-7,1
26629,0.003,0.056,-0.001,-0.00,-0.03,-9.84,-13,-7,1
26630,-0.058,-0.066,0.060,-0.00,0.05,-9.84,-8,2,8
26631,0.003,-0.005,-0.001,-0.00,0.05,-9.84,-8,2,8
26632,0.064,0.056,0.121,-0.00,0.05,-9.84,-12,-2,2
26633,0.003,0.056,-0.123,-0.00,0.05,-9.84,-12,-2,2
26634,-0.119,0.117,-0.123,-0.00,0.05,-9.84,-7,-9,1
26635,0.003,0.056,0.060,-0.00,0.05,-9.84,-7,-9,1
26636,-0.058,0.117,-0.001,-0.00,0.05,-9.84,-11,-1,1
26637,-0.119,0.056,-0.001,-0.00,0.05,-9.84,-11,-1,1
26638,0.064,-0.066,0.060,-0.00,0.05,-9.84,-5,-3,1
26639,-0.058,-0.005,0.060,0.07,-0.03,-9.77,-5,-3,1
26640,0.064,-0.005,-0.001,-0.00,-0.03,-9.77,-11,-3,-1
26641,0.064,-0.005,-0.001,0.07,-0.03,-9.77,-11,-3,-1
26642,0.003,-0.005,-0.062,-0.00,-0.03,-9.77,-4,-8,4
26643,0.125,0.056,0.121,-0.00,-0.03,-9.77,-4,-8,4
26644,0.186,-0.066,0.060,-0.00,-0.03,-9.77,-19,-3,-1
26645,0.186,-0.066,-0.001,-0.00,-0.03,-9.77,-19,-3,-1
26646,0.003,-0.127,0.060,-0.00,-0.03,-9.84,-4,2,6
26647,0.125,-0.066,-0.062,-0.00,-0.03,-9.84,-4,2,6
26648,0.247,-0.249,-0.001,-0.00,-0.03,-9.84,-12,-2,2
26649,0.064,-0.127,-0.123,-0.00,-0.03,-9.84,-12,-2,2
26650,-0.058,-0.066,0.060,-0.00,-0.03,-9.84,-10,-4,-2
26651,-0.119,0.117,-0.001,-0.00,0.05,-9.84,-10,-4,-2
26652,-0.058,0.056,-0.001,-0.00,0.05,-9.84,-11,-9,3
26653,-0.058,0.117,-0.001,-0.00,0.05,-9.84,-11,-9,3
26654,0.064,0.179,0.060,-0.00,0.05,-9.84,-8,-6,2
26655,0.064,0.179,-0.062,-0.00,0.05,-9.84,-8,-6,2
26656,0.064,0.056,-0.062,-0.00,-0.03,-9.77,-12,-2,-2
26657,0.003,0.056,-0.123,-0.00,-0.03,-9.77,-12,-2,-2
26658,0.003,-0.005,0.060,-0.00,-0.03,-9.77,-9,-7,1
26659,-0.119,-0.066,-0.001,-0.00,-0.03,-9.77,-9,-7,1
26660,0.125,-0.127,0.060,-0.00,-0.03,-9.77,-9,-3,5
26661,0.003,-0.066,0.060,-0.00,-0.03,-9.77,-9,-3,5
26662,-0.119,0.056,0.060,-0.00,-0.03,-9.77,-9,1,5
26663,-0.119,-0.005,-0.001,-0.00,-0.03,-9.77,-9,1,5
26664,0.064,-0.066,0.243,-0.00,-0.03,-9.77,-16,-4,0
26665,0.186,0.056,-0.001,-0.00,-0.03,-9.77,-16,-4,0
26666,0.186,-0.005,0.060,-0.00,-0.03,-9.77,-11,-7,1
26667,0.125,-0.188,0.121,-0.00,-0.03,-9.77,-11,-7,1
26668,0.125,-0.188,0.060,-0.00,-0.03,-9.77,-10,-4,2
26669,0.125,-0.127,0.121,-0.00,-0.03,-9.77,-10,-4,2
26670,0.064,-0.005,-0.001,-0.00,-0.03,-9.77,-12,-4,4
26671,0.003,-0.127,-0.062,-0.00,-0.03,-9.77,-12,-4,4
26672,-0.119,-0.005,-0.123,-0.00,0.05,-9.77,-12,0,-2
26673,-0.180,-0.005,0.060,-0.00,0.05,-9.77,-12,0,-2
26674,0.064,0.056,-0.001,-0.00,0.05,-9.77,-13,-3,7
26675,0.003,0.117,-0.062,-0.00,-0.03,-9.77,-13,-3,7
26676,0.186,0.117,-0.123,-0.00,0.05,-9.77,-9,-7,5
26677,0.125,0.179,-0.123,-0.00,0.05,-9.77,-9,-7,5
26678,-0.058,-0.005,-0.184,-0.00,0.05,-9.77,-4,-2,6
26679,-0.180,0.056,-0.062,-0.00,0.05,-9.77,-4,-2,6
26680,-0.363,0.117,-0.062,-0.00,0.05,-9.77,-12,-6,6
26681,-0.302,-0.005,-0.001,-0.00,0.05,-9.77,-12,-6,6
26682,-0.425,0.117,0.060,-0.00,-0.03,-9.77,-12,-4,4
26683,-0.302,0.179,0.243,-0.00,-0.03,-9.77,-12,-4,4
26684,-0.241,0.240,0.060,-0.00,-0.03,-9.77,-14,-2,6
26685,0.247,0.117,0.243,-0.00,-0.03,-9.77,-14,-2,6
26686,0.552,0.056,0.060,0.07,-0.03,-9.84,-16,0,0
26687,0.857,0.056,0.060,0.07,-0.03,-9.84,-16,0,0
26688,0.552,-0.066,-0.062,0.07,-0.03,-9.77,-16,-4,4
26689,0.430,-0.188,0.121,0.07,-0.03,-9.77,-16,-4,4
26690,0.186,-0.493,-0.062,0.07,-0.03,-9.84,-12,-8,4
26691,0.064,-0.249,-0.001,0.07,0.05,-9.84,-12,-8,4
26692,-0.241,-0.188,0.060,0.07,0.05,-9.77,-13,-3,3
26693,-0.425,-0.188,0.060,-0.00,0.05,-9.77,-13,-3,3
26694,-0.486,-0.188,-0.001,-0.00,0.05,-9.77,-7,-7,5
26695,-0.425,0.056,-0.062,-0.00,0.05,-9.84,-7,-7,5
26696,-0.241,0.056,-0.062,-0.00,0.05,-9.84,-13,-5,-3
26697,0.003,-0.005,-0.062,-0.00,-0.03,-9.77,-13,-5,-3
26698,0.247,0.056,-0.001,-0.00,-0.03,-9.77,-8,-2,6
26699,0.369,0.117,0.060,-0.00,-0.03,-9.77,-8,-2,6
26700,0.430,-0.005,-0.001,-0.00,-0.03,-9.77,-9,-7,1
26701,0.308,-0.066,-0.001,-0.00,0.05,-9.77,-9,-7,1
26702,0.369,-0.066,-0.062,-0.00,0.05,-9.77,-9,-5,3
26703,0.064,-0.005,0.060,-0.00,0.05,-9.77,-9,-5,3
26704,-0.241,-0.066,-0.062,-0.00,0.05,-9.77,-10,-4,4
26705,-0.363,0.056,-0.062,-0.00,0.05,-9.77,-10,-4,4
26706,-0.486,0.056,0.060,-0.00,0.05,-9.77,-8,-4,4
26707,-0.425,0.179,0.060,0.07,0.05,-9.77,-8,-4,4
26708,-0.363,-0.005,-0.062,-0.00,0.05,-9.77,-7,1,5
26709,-0.119,0.117,0.060,0.07,0.05,-9.84,-7,1,5
26710,0.064,0.056,-0.001,0.07,-0.03,-9.77,-9,-1,1
26711,0.308,0.117,-0.123,0.07,-0.03,-9.77,-9,-1,1
26712,0.674,0.179,-0.367,0.07,-0.03,-9.84,-11,-3,3
26713,0.491,0.179,-0.490,0.07,-0.03,-9.84,-11,-3,3
26714,-0.058,-0.127,-0.245,-0.00,-0.03,-9.84,-6,-2,0
26715,-0.547,-0.371,-0.245,-0.00,-0.03,-9.84,-6,-2,0
26716,-0.486,-0.310,0.060,-0.00,-0.03,-9.84,-7,-1,5
26717,-0.608,-0.127,0.182,-0.00,-0.03,-9.84,-7,-1,5
26718,-0.547,-0.127,0.365,-0.00,-0.03,-9.84,-1,-3,5
26719,-0.363,-0.127,0.121,-0.00,-0.03,-9.84,-1,-3,5
26720,0.186,-0.005,-0.001,-0.00,-0.03,-9.84,-9,-3,3
26721,0.552,0.056,-0.062,-0.00,-0.03,-9.84,-9,-3,3
26722,0.674,-0.005,-0.123,-0.00,-0.03,-9.84,-16,0,4
26723,0.613,0.117,0.243,-0.00,-0.03,-9.84,-16,0,4
26724,0.308,0.117,0.243,-0.00,-0.03,-9.84,-10,-6,4
26725,0.186,0.179,0.243,-0.00,-0.03,-9.84,-10,-6,4
26726,0.064,0.301,0.243,-0.00,-0.03,-9.84,-11,-3,3
26727,-0.302,0.301,0.182,-0.00,-0.03,-9.84,-11,-3,3
26728,-0.241,0.362,-0.001,-0.00,-0.03,-9.84,-9,-1,1
26729,0.064,0.240,-0.062,-0.00,-0.03,-9.84,-9,-1,1
26730,-0.119,0.056,0.060,-0.00,-0.03,-9.77,-10,-2,6
26731,-0.180,-0.249,0.182,-0.00,-0.03,-9.77,-10,-2,6
26732,0.003,-0.249,0.182,-0.00,-0.03,-9.77,-15,-3,1
26733,0.369,-0.188,0.121,-0.00,-0.03,-9.84,-15,-3,1
26734,0.552,-0.127,-0.001,-0.00,0.05,-9.77,-13,-9,-3
26735,0.247,-0.188,-0.184,0.07,0.05,-9.77,-13,-9,-3
26736,-0.180,-0.005,-0.306,0.07,0.05,-9.84,-13,-5,1
26737,-0.302,0.240,-0.184,-0.00,0.05,-9.77,-13,-5,1
26738,-0.425,0.301,0.182,-0.00,-0.03,-9.84,-10,-4,4
26739,-0.425,0.240,0.121,-0.00,-0.03,-9.84,-10,-4,4
26740,-0.486,0.240,0.365,-0.00,-0.03,-9.84,-11,-3,7
26741,0.064,0.362,0.304,-0.00,-0.03,-9.84,-11,-3,7
26742,0.613,0.362,-0.001,-0.00,-0.03,-9.84,-6,-4,4
26743,0.552,0.240,-0.245,-0.00,-0.03,-9.84,-6,-4,4
26744,0.491,-0.005,-0.123,-0.00,-0.03,-9.84,-6,-6,-4
26745,0.491,0.056,-0.306,-0.00,-0.03,-9.84,-6,-6,-4
26746,0.552,-0.005,-0.123,-0.00,-0.03,-9.84,-16,-8,-2
26747,0.003,-0.371,-0.001,-0.00,-0.03,-9.84,-16,-8,-2
26748,-0.547,-0.615,-0.062,-0.00,-0.03,-9.84,-15,-1,1
26749,-0.425,-0.310,-0.184,-0.00,-0.03,-9.84,-15,-1,1
26750,-0.180,0.056,-0.245,-0.00,-0.03,-9.84,-12,-6,4
26751,-0.547,0.117,-0.184,-0.00,-0.03,-9.84,-12,-6,4
26752,-0.974,-0.127,-0.123,-0.00,-0.03,-9.84,-9,-3,3
26753,-0.730,0.056,0.243,-0.00,-0.03,-9.84,-9,-3,3
26754,-0.058,0.301,-0.001,-0.00,-0.03,-9.84,-11,-7,5
26755,0.552,0.423,0.182,-0.00,-0.03,-9.84,-11,-7,5
26756,0.674,0.240,0.121,-0.00,-0.03,-9.84,-11,-5,7
26757,1.101,0.117,-0.184,-0.00,-0.03,-9.84,-11,-5,7
26758,1.223,0.240,-0.428,-0.00,-0.03,-9.84,-11,-5,7
26759,0.430,0.056,-0.367,-0.00,-0.03,-9.84,-11,-5,7
26760,-0.302,-0.493,-0.123,-0.00,-0.03,-9.84,-12,-2,2
26761,-0.425,-0.615,0.121,-0.00,-0.03,-9.84,-12,-2,2
26762,-0.241,-0.554,0.304,-0.00,-0.03,-9.84,-13,-3,3
26763,-0.302,-0.371,0.121,-0.08,0.05,-9.84,-13,-3,3
26764,-0.363,-0.249,-0.001,-0.08,-0.03,-9.84,-14,-6,0
26765,-0.119,-0.005,-0.062,-0.08,0.05,-9.84,-14,-6,0
26766,0.064,0.240,-0.184,-0.08,0.05,-9.84,-10,-4,4
26767,-0.058,0.606,-0.062,-0.08,0.05,-9.84,-10,-4,4
26768,-0.547,1.094,0.243,-0.08,0.05,-9.84,-6,-2,6
26769,-0.425,1.216,0.426,-0.00,0.05,-9.92,-6,-2,6
26770,0.247,1.338,0.487,-0.00,-0.03,-9.92,-12,-6,2
26771,0.918,1.094,0.304,-0.00,-0.03,-9.92,-12,-6,2
26772,1.223,0.606,-0.062,-0.00,-0.03,-9.84,-10,-2,2
26773,1.162,-0.005,-0.306,-0.00,0.05,-9.84,-10,-2,2
26774,0.674,-0.737,-0.184,-0.00,-0.03,-9.84,-4,-10,-2
26775,0.003,-1.531,0.060,-0.00,-0.03,-9.84,-4,-10,-2
26776,-0.180,-1.531,0.304,-0.00,0.05,-9.84,-6,-4,2
26777,-0.119,-1.042,0.487,-0.00,0.05,-9.84,-6,-4,2
26778,0.064,-0.554,0.243,-0.00,0.05,-9.84,-9,-1,3
26779,-0.486,-0.066,-0.123,-0.00,0.05,-9.84,-9,-1,3
26780,-0.608,0.545,-0.612,-0.00,0.05,-9.84,-8,0,0
26781,-0.241,1.094,-0.612,-0.00,0.05,-9.84,-8,0,0
26782,0.003,1.216,-0.673,-0.00,0.05,-9.84,-17,-7,-1
26783,-0.241,1.094,-0.306,-0.00,0.05,-9.84,-17,-7,-1
26784,-0.486,0.911,-0.062,-0.00,0.05,-9.84,-11,-3,1
26785,0.125,0.545,-0.062,0.07,0.05,-9.84,-11,-3,1
26786,0.979,0.362,-0.306,0.07,0.05,-9.84,-11,-5,5
26787,0.857,-0.493,-0.673,0.07,0.05,-9.84,-11,-5,5
26788,0.125,-1.103,-0.734,0.07,0.05,-9.84,-15,-5,5
26789,-0.119,-1.408,-0.673,0.07,0.05,-9.84,-15,-5,5
26790,0.186,-1.653,-0.062,0.07,0.05,-9.84,-7,-5,-1
26791,-0.119,-1.836,0.365,-0.00,0.05,-9.84,-7,-5,-1
26792,-0.119,-1.653,0.243,-0.00,0.05,-9.84,-9,-5,7
26793,-0.119,-1.042,0.182,-0.00,0.05,-9.84,-9,-5,7
26794,-0.119,-0.188,0.060,-0.00,0.05,-9.84,-10,0,2
26795,0.308,0.362,-0.428,-0.00,0.05,-9.84,-10,0,2
26796,0.430,0.972,-0.428,-0.00,0.12,-9.84,-5,-3,1
26797,0.064,1.277,-0.428,-0.00,0.05,-9.84,-5,-3,1
26798,-0.486,1.216,-0.001,-0.00,0.05,-9.77,-11,-7,5
26799,-0.547,0.850,0.548,-0.00,0.05,-9.77,-11,-7,5
26800,0.003,0.606,0.670,-0.00,0.05,-9.84,-9,-3,9
26801,0.430,0.423,0.609,-0.00,-0.03,-9.77,-9,-3,9
26802,0.552,-0.066,0.304,-0.00,-0.03,-9.77,-14,0,6
26803,0.735,-0.310,0.060,-0.00,-0.03,-9.77,-14,0,6
26804,0.613,-0.432,-0.001,-0.00,-0.03,-9.77,-8,-2,4
26805,0.308,-0.554,0.121,-0.00,-0.03,-9.77,-8,-2,4
26806,0.064,-0.615,0.243,-0.00,0.05,-9.77,-7,3,5
26807,0.186,0.056,0.243,-0.00,0.05,-9.77,-7,3,5
26808,-0.241,0.545,0.426,-0.00,0.05,-9.77,-10,-6,4
26809,-0.852,0.545,0.243,-0.00,0.05,-9.77,-10,-6,4
26810,-0.363,0.728,0.304,0.07,0.05,-9.77,-15,-3,3
26811,0.247,0.667,-0.062,-0.00,0.05,-9.77,-15,-3,3
26812,0.674,0.667,-0.306,-0.00,0.05,-9.84,-13,-5,3
26813,0.491,0.240,-0.245,-0.00,0.05,-9.77,-13,-5,3
26814,0.125,-0.249,-0.001,-0.00,0.05,-9.84,-5,-3,1
26815,0.552,-0.432,0.243,-0.00,0.05,-9.84,-5,-3,1
26816,0.674,-0.493,0.182,-0.00,0.05,-9.84,-7,-7,3
26817,-0.058,-0.371,0.121,-0.00,0.05,-9.84,-7,-7,3
26818,-0.913,-0.493,-0.001,-0.00,0.05,-9.84,-6,-4,4
26819,-0.791,-0.310,-0.123,-0.00,0.05,-9.84,-6,-4,4
26820,-0.302,-0.127,-0.001,-0.00,0.05,-9.84,-4,-6,2
26821,-0.058,-0.005,-0.062,-0.00,0.05,-9.84,-4,-6,2
26822,0.064,-0.188,-0.184,-0.00,0.05,-9.84,-10,-6,6
26823,0.125,-0.005,-0.001,-0.00,-0.03,-9.77,-10,-6,6
26824,0.125,-0.249,0.060,-0.00,-0.03,-9.77,-14,-4,4
26825,0.247,-0.249,0.060,-0.00,-0.03,-9.77,-14,-4,4
26826,0.613,-0.371,0.060,-0.00,-0.03,-9.77,-11,-3,3
26827,0.552,-0.005,-0.062,-0.08,-0.03,-9.77,-11,-3,3
26828,-0.119,0.423,-0.123,-0.08,-0.03,-9.77,-11,1,1
26829,-0.363,0.728,-0.062,-0.00,-0.03,-9.84,-11,1,1
26830,-0.058,0.850,-0.001,-0.00,-0.03,-9.84,-11,-1,-3
26831,-0.180,0.789,0.121,-0.00,-0.03,-9.84,-11,-1,-3
26832,-0.669,0.911,0.121,-0.00,-0.03,-9.84,-9,-3,5
26833,-0.180,0.789,0.487,-0.00,-0.03,-9.84,-9,-3,5
26834,0.674,0.056,0.243,-0.00,-0.03,-9.84,-9,-5,7
26835,0.735,-0.310,-0.001,0.07,-0.03,-9.84,-9,-5,7
26836,0.613,-0.615,-0.184,-0.00,-0.03,-9.84,-10,2,6
26837,0.674,-1.164,-0.245,-0.00,0.05,-9.77,-10,2,6
26838,0.430,-0.981,-0.184,-0.00,0.05,-9.77,-11,-5,7
26839,0.308,-0.493,-0.184,-0.00,0.05,-9.77,-11,-5,7
26840,-0.363,-0.249,-0.001,-0.00,0.05,-9.77,-7,-3,5
26841,-1.035,-0.005,0.060,-0.00,0.05,-9.77,-7,-3,5
26842,-1.340,0.423,0.243,-0.08,0.05,-9.84,-9,-3,3
26843,-0.913,0.850,0.426,-0.08,-0.03,-9.84,-9,-3,3
26844,-0.241,1.277,0.426,-0.08,-0.03,-9.84,-11,-5,3
26845,0.369,1.338,0.731,-0.08,-0.03,-9.84,-11,-5,3
26846,1.101,1.155,0.609,-0.00,-0.03,-9.84,-9,-5,1
26847,1.162,0.728,0.121,-0.08,-0.11,-9.84,-9,-5,1
26848,1.101,0.301,0.060,-0.00,-0.03,-9.84,-12,-2,2
26849,1.162,-0.005,-0.245,-0.00,-0.03,-9.84,-12,-2,2
26850,1.285,-0.310,-0.367,-0.00,-0.03,-9.84,-9,-5,1
26851,0.430,-0.493,-0.062,0.07,0.05,-9.84,-9,-5,1
26852,-0.791,-0.920,0.243,0.07,0.05,-9.77,-10,-6,-4
26853,-1.523,-0.920,0.060,0.07,0.05,-9.77,-10,-6,-4
26854,-1.340,-0.615,0.121,0.07,0.05,-9.84,-12,-8,0
26855,-0.730,-0.554,-0.062,0.07,0.05,-9.84,-12,-8,0
26856,-0.241,-0.249,-0.184,0.07,0.05,-9.77,-13,-3,-3
26857,-0.241,0.423,0.121,0.07,0.05,-9.77,-13,-3,-3
26858,0.125,0.667,0.365,0.07,-0.03,-9.84,-8,-10,6
26859,1.040,0.606,0.243,0.07,-0.03,-9.84,-8,-10,6
26860,1.712,0.545,-0.367,-0.00,0.05,-9.84,-12,-2,2
26861,1.285,0.911,-0.490,-0.00,0.05,-9.77,-12,-2,2
26862,0.247,0.545,-0.184,0.07,0.05,-9.77,-13,-5,3
26863,0.247,0.056,-0.001,0.07,0.05,-9.77,-13,-5,3
26864,0.186,-0.066,0.426,0.07,0.05,-9.77,-6,-6,6
26865,-0.852,-0.493,0.487,-0.00,0.05,-9.77,-6,-6,6
26866,-1.096,-0.554,0.182,-0.00,0.05,-9.77,-10,-4,2
26867,-1.035,-0.554,0.243,-0.00,0.05,-9.77,-10,-4,2
26868,-0.241,-0.554,0.365,-0.00,0.05,-9.77,-10,-4,4
26869,0.796,-0.554,0.060,-0.00,0.05,-9.77,-10,-4,4
26870,0.674,-0.432,0.243,-0.00,0.05,-9.77,-12,-2,6
26871,-0.058,-0.005,0.121,-0.00,0.05,-9.77,-12,-2,6
26872,0.613,0.423,-0.001,-0.00,0.05,-9.77,-7,-5,5
26873,1.285,0.362,0.304,0.07,0.05,-9.77,-7,-5,5
26874,0.796,0.423,-0.001,-0.00,0.05,-9.77,-6,-6,-2
26875,0.552,0.606,-0.306,-0.00,0.05,-9.84,-6,-6,-2
26876,-0.180,0.606,-0.001,-0.00,0.05,-9.77,-7,-1,11
26877,-0.669,0.179,0.243,-0.00,0.05,-9.77,-7,-1,11
26878,-0.241,-0.127,0.304,-0.00,0.05,-9.77,-9,-7,-1
26879,0.369,0.240,0.060,-0.00,0.05,-9.77,-9,-7,-1
26880,0.247,0.179,-0.001,-0.00,0.05,-9.77,-11,-5,3
26881,-0.058,-0.432,-0.123,-0.00,0.05,-9.77,-11,-5,3
26882,-0.058,-0.127,-0.306,-0.00,0.05,-9.77,-13,-3,1
26883,0.796,0.545,-0.306,0.07,0.05,-9.84,-13,-3,1
26884,0.796,0.545,-0.062,0.07,0.05,-9.84,-8,-4,4
26885,-0.363,-0.188,-0.245,-0.00,0.05,-9.77,-8,-4,4
26886,-0.791,-0.066,-0.551,0.07,0.05,-9.77,-14,-4,0
26887,0.125,0.850,-0.612,0.07,0.05,-9.84,-14,-4,0
26888,0.247,0.301,-0.306,0.07,0.05,-9.84,-2,-8,6
26889,-0.486,-0.615,-0.123,0.07,0.05,-9.77,-2,-8,6
26890,-0.913,-0.920,-0.245,-0.00,0.05,-9.77,-13,-5,-3
26891,-0.852,-0.676,0.060,-0.00,0.05,-9.77,-13,-5,-3
26892,0.064,-0.798,0.304,-0.08,-0.03,-9.77,-10,-6,4
26893,0.796,-0.554,0.121,-0.00,-0.03,-9.77,-10,-6,4
26894,0.796,-0.005,0.670,-0.08,-0.03,-9.84,-13,-1,1
26895,0.552,-0.188,0.548,-0.08,-0.03,-9.84,-13,-1,1
26896,0.369,0.179,0.182,-0.16,-0.03,-9.84,-7,-11,9
26897,0.308,1.399,0.121,-0.08,-0.03,-9.77,-7,-11,9
26898,0.674,2.193,0.365,-0.08,-0.03,-9.84,-12,-12,6
26899,1.101,1.704,0.304,-0.00,-0.03,-9.84,-12,-12,6
26900,0.308,1.460,0.060,-0.00,0.05,-9.77,-1,-7,3
26901,-0.547,1.765,-0.245,-0.00,0.05,-9.77,-1,-7,3
26902,-0.852,1.033,-0.367,0.07,0.05,-9.77,-14,-6,0
26903,-0.791,-0.371,0.365,0.07,0.05,-9.77,-14,-6,0
26904,-0.180,-1.469,0.365,0.07,0.05,-9.77,-11,-9,9
26905,0.308,-1.592,0.121,0.07,0.05,-9.77,-11,-9,9
26906,0.003,-1.469,0.365,-0.00,0.05,-9.77,-6,-6,4
26907,-0.058,-2.080,0.426,-0.00,-0.03,-9.77,-6,-6,4
26908,0.613,-2.080,0.487,-0.08,-0.03,-9.84,-4,-2,2
26909,0.979,-0.493,0.365,-0.08,-0.03,-9.84,-4,-2,2
26910,0.735,0.972,0.487,-0.08,-0.03,-9.84,-9,-5,1
26911,0.186,1.094,0.731,-0.08,-0.03,-9.84,-9,-5,1
26912,0.003,1.521,0.426,-0.08,0.05,-9.84,-8,-12,6
26913,0.308,2.376,0.243,-0.08,0.05,-9.84,-8,-12,6
26914,0.430,2.925,-0.001,-0.00,0.05,-9.84,-8,-6,4
26915,-0.302,2.315,-0.062,-0.00,0.05,-9.84,-8,-6,4
26916,-0.363,1.521,0.243,0.07,0.05,-9.84,-13,-1,5
26917,0.247,0.117,0.426,0.07,0.05,-9.84,-13,-1,5
26918,0.125,-0.859,0.243,0.07,0.05,-9.77,-8,-6,4
26919,1.407,-1.103,-2.076,0.15,0.20,-9.77,-8,-6,4
26920,3.543,-1.286,-6.837,0.15,0.43,-9.77,-5,-5,5
26921,-3.232,-2.873,1.525,0.15,0.05,-9.77,-5,-5,5
26922,-14.951,-4.399,-0.184,0.07,-0.41,-9.77,-10,-8,2
26923,-9.214,-4.094,-3.358,-0.00,-0.18,-9.77,-10,-8,2
26924,12.943,0.728,-5.800,-0.08,0.51,-9.92,-11,-7,5
26925,18.497,3.963,1.342,-0.16,0.51,-9.92,-11,-7,5
26926,-3.232,2.864,5.553,-0.08,-0.11,-9.77,-9,-7,5
26927,-17.698,-1.408,-3.175,-0.00,-0.26,-9.69,-9,-7,5
26928,-7.017,-4.338,0.182,-0.08,-0.26,-9.77,-10,-4,4
26929,7.327,1.460,3.661,-0.16,-0.18,-9.92,-10,-4,4
26930,8.060,8.052,-1.039,-0.23,0.20,-10.00,-12,0,-2
26931,0.247,5.428,-0.367,-0.16,0.28,-9.92,-12,0,-2
26932,-3.232,-0.188,-1.100,-0.08,-0.26,-9.77,-9,-9,7
26933,0.003,-3.667,-0.306,-0.00,-0.64,-9.61,-9,-9,7
26934,3.177,-2.751,0.304,-0.00,-0.18,-9.69,-10,-2,6
26935,1.651,-1.286,0.731,-0.08,0.43,-9.92,-10,-2,6
26936,-0.913,-2.080,1.525,-0.08,0.28,-9.92,-14,-10,0
26937,-1.462,-3.667,1.342,-0.08,-0.03,-9.77,-14,-10,0
26938,-0.363,-2.385,-0.917,-0.00,-0.18,-9.69,-7,-1,7
26939,-0.425,0.484,-2.626,-0.00,0.12,-9.77,-7,-1,7
26940,0.186,1.155,-0.490,-0.08,0.35,-9.84,-10,-2,2
26941,0.491,0.117,1.281,-0.23,0.28,-9.84,-10,-2,2
26942,-0.669,0.117,1.036,-0.31,-0.03,-9.77,-9,-3,7
26943,-1.767,1.704,0.975,-0.23,-0.18,-9.77,-9,-3,7
26944,-0.913,3.413,0.243,-0.16,-0.11,-9.84,-10,-8,6
26945,1.834,3.597,-0.001,-0.08,0.05,-9.92,-10,-8,6
26946,2.261,3.902,0.365,-0.08,0.05,-9.92,-14,-4,6
26947,-0.791,4.146,-0.734,-0.00,-0.03,-9.84,-14,-4,6
26948,-1.584,1.033,0.731,0.07,-0.11,-9.77,-11,-7,5
26949,0.491,-2.507,1.342,0.15,-0.11,-9.84,-11,-7,5
26950,1.468,-3.789,1.891,0.23,0.05,-9.84,-5,-3,5
26951,0.918,-4.094,1.220,0.23,0.05,-9.84,-5,-3,5
26952,1.162,-5.742,-0.367,0.07,0.05,-9.77,-7,-7,1
26953,1.468,-8.367,0.365,-0.08,0.05,-9.69,-7,-7,1
26954,0.430,-7.024,-0.367,-0.23,0.05,-9.69,-6,-4,2
26955,-0.302,-1.714,-1.344,-0.31,0.20,-9.77,-6,-4,2
26956,-0.363,2.132,0.975,-0.31,0.20,-9.84,-3,-1,9
26957,-1.828,3.291,2.257,-0.31,0.12,-9.92,-3,-1,9
26958,-2.683,5.061,0.670,-0.31,0.05,-9.84,-8,-4,2
26959,-2.744,8.357,-0.795,-0.23,0.05,-9.84,-8,-4,2
26960,-2.500,9.395,-0.978,-0.16,0.05,-9.92,-8,-2,8
26961,-0.302,7.076,-0.612,-0.00,0.05,-9.92,-8,-2,8
26962,3.421,3.841,0.487,0.15,0.05,-9.92,-8,-2,2
26963,4.153,0.789,1.586,0.15,-0.11,-9.92,-8,-2,2
26964,1.101,-3.179,2.135,0.15,-0.18,-9.84,-6,-8,0
26965,-0.669,-6.352,1.952,0.15,-0.11,-9.84,-6,-8,0
26966,0.613,-7.573,1.830,0.15,-0.11,-9.84,-5,-5,-1
26967,2.322,-6.902,0.975,0.15,-0.03,-9.92,-5,-5,-1
26968,2.627,-5.681,-0.306,0.15,0.05,-9.84,-9,-5,7
26969,-0.119,-4.521,-0.856,0.07,0.12,-9.84,-9,-5,7
26970,-2.622,-3.423,-0.917,-0.08,0.12,-9.84,-11,-7,5
26971,-2.866,-1.714,-1.039,-0.16,0.20,-9.84,-11,-7,5
26972,-1.218,1.094,-1.222,-0.16,0.28,-9.84,-10,-6,8
26973,-0.608,3.536,-0.673,-0.16,0.35,-9.92,-10,-6,8
26974,-1.767,4.817,-0.673,-0.23,0.35,-9.84,-16,-6,4
26975,-2.195,5.184,-0.551,-0.23,0.28,-9.84,-16,-6,4
26976,-2.256,5.061,-0.795,-0.23,0.12,-9.77,-9,-1,13
26977,-1.584,4.268,-0.795,-0.23,0.12,-9.84,-9,-1,13
26978,-0.363,2.681,-0.367,-0.16,0.05,-9.84,-12,-2,2
26979,0.613,0.728,0.182,-0.08,-0.03,-9.84,-12,-2,2
26980,1.101,-1.164,0.609,-0.00,-0.11,-9.77,-11,-9,1
26981,1.468,-3.301,0.853,0.07,-0.18,-9.77,-11,-9,1
26982,0.918,-4.643,1.036,0.15,-0.18,-9.77,-14,-2,2
26983,0.735,-4.888,0.670,0.15,-0.11,-9.77,-14,-2,2
26984,0.979,-4.582,0.060,0.15,-0.03,-9.84,-11,-11,9
26985,0.796,-3.728,-0.123,0.07,0.05,-9.77,-11,-11,9
26986,-0.669,-2.446,-0.245,0.07,0.05,-9.77,-12,-4,6
26987,-1.889,-0.859,-0.245,-0.00,0.05,-9.77,-12,-4,6
26988,-1.645,0.728,0.121,-0.00,0.12,-9.77,-12,-8,2
26989,-1.279,2.193,0.060,-0.08,0.12,-9.84,-12,-8,2
26990,-1.523,2.864,0.487,-0.16,0.12,-9.84,-3,-5,-3
26991,-1.645,3.169,0.243,-0.16,0.05,-9.84,-3,-5,-3
26992,-0.486,3.108,0.304,-0.16,-0.03,-9.84,-12,-4,0
26993,0.796,2.986,0.060,-0.08,-0.03,-9.84,-12,-4,0
26994,2.078,2.071,-0.917,-0.00,0.05,-9.84,-8,0,2
26995,3.055,-0.493,-0.612,-0.00,0.05,-9.84,-8,0,2
26996,0.857,-2.324,-0.795,-0.00,0.05,-9.77,-12,-8,6
26997,-2.073,-2.690,-0.367,-0.00,-0.03,-9.77,-12,-8,6
26998,-3.171,-1.653,-0.306,0.07,-0.03,-9.77,-10,-4,6
26999,-1.096,-2.141,1.708,0.07,-0.03,-9.84,-10,-4,6
27000,0.735,-2.507,0.975,0.07,0.05,-9.84,-8,-4,4
27001,0.247,-0.920,-0.245,-0.00,0.05,-9.84,-8,-4,4
27002,-1.096,0.240,-1.283,-0.08,-0.03,-9.84,-11,-1,9
27003,-1.218,-0.066,-1.161,-0.00,-0.03,-9.84,-11,-1,9
27004,0.735,-0.005,-0.612,-0.00,-0.03,-9.84,-8,0,6
27005,2.810,0.484,0.426,-0.00,0.05,-9.92,-8,0,6
27006,2.078,1.155,0.121,-0.08,0.05,-9.92,-10,0,8
27007,-0.363,0.911,0.182,-0.16,0.05,-9.84,-10,0,8
27008,-1.523,0.484,-0.062,-0.08,-0.03,-9.77,-11,-3,1
27009,-0.791,0.850,-0.245,-0.08,-0.03,-9.84,-11,-3,1
27010,0.430,1.460,-0.306,-0.00,0.05,-9.84,-7,-3,-1
27011,0.003,1.216,-0.062,-0.00,0.05,-9.84,-7,-3,-1
27012,-0.852,-0.371,0.487,-0.08,-0.03,-9.77,-9,-5,7
27013,-1.340,-1.408,0.609,-0.08,-0.03,-9.77,-9,-5,7
27014,-0.486,-1.286,0.609,-0.00,-0.11,-9.77,-9,3,-3
27015,1.162,-1.103,0.426,0.07,-0.03,-9.84,-9,3,-3
27016,1.956,-1.164,0.365,0.07,-0.03,-9.84,-11,-5,5
27017,1.651,-0.798,0.060,-0.00,-0.03,-9.77,-11,-5,5
27018,0.918,-0.310,-0.245,-0.00,-0.03,-9.77,-10,-8,4
27019,-0.180,0.301,-0.490,-0.00,-0.03,-9.77,-10,-8,4
27020,-0.547,0.667,-0.428,-0.00,0.05,-9.77,-11,-1,1
27021,-0.486,0.911,-0.123,-0.00,0.05,-9.77,-11,-1,1
27022,-0.363,0.850,0.060,-0.00,0.05,-9.84,-7,1,-3
27023,-0.852,0.362,-0.062,-0.00,0.05,-9.77,-7,1,-3
27024,-1.035,-0.127,0.060,-0.08,0.05,-9.77,-13,-3,5
27025,-0.669,-0.310,-0.123,-0.00,0.05,-9.84,-13,-3,5
27026,0.369,-0.066,-0.184,-0.00,0.05,-9.84,-10,-10,0
27027,0.979,-0.127,-0.184,-0.00,-0.03,-9.84,-10,-10,0
27028,0.613,-0.432,0.182,-0.00,-0.03,-9.84,-9,-3,3
27029,0.186,-1.103,0.243,-0.08,-0.03,-9.84,-9,-3,3
27030,0.613,-0.615,-0.123,-0.08,-0.03,-9.84,-7,-5,5
27031,1.712,0.117,-0.612,-0.00,0.05,-9.84,-7,-5,5
27032,1.956,0.301,-1.222,0.07,0.12,-9.92,-9,1,1
27033,0.674,-0.066,-1.710,0.07,0.12,-9.84,-9,1,1
27034,-1.035,-0.005,-2.260,0.07,0.20,-9.84,-4,-6,-2
27035,-2.439,0.240,-1.954,-0.00,0.20,-9.84,-4,-6,-2
27036,-3.171,0.301,-0.978,-0.00,0.20,-9.84,-12,-6,0
27037,-3.598,0.179,-0.001,-0.08,0.20,-9.84,-12,-6,0
27038,-3.171,0.606,0.853,-0.08,0.12,-9.84,-7,-1,7
27039,-2.134,1.033,1.097,-0.16,0.05,-9.84,-7,-1,7
27040,-0.913,1.460,0.365,-0.16,-0.11,-9.84,-5,-3,1
27041,0.674,1.765,-0.123,-0.16,-0.11,-9.84,-5,-3,1
27042,1.346,1.888,-0.123,-0.08,-0.18,-9.84,-12,-4,6
27043,1.956,1.399,0.304,-0.08,-0.26,-9.84,-12,-4,6
27044,2.994,0.545,0.548,-0.00,-0.18,-9.84,-11,-1,3
27045,3.299,0.117,0.609,-0.00,-0.11,-9.84,-11,-1,3
27046,2.627,-0.493,0.487,0.07,-0.03,-9.77,-10,-10,10
27047,1.285,-1.469,-0.062,0.07,0.05,-9.77,-10,-10,10
27048,-0.119,-2.202,-0.184,0.07,0.05,-9.77,-8,-10,2
27049,-1.523,-2.141,-0.062,0.07,0.12,-9.77,-8,-10,2
27050,-2.927,-1.653,0.365,-0.00,0.12,-9.77,-15,-5,5
27051,-3.354,-0.859,1.036,-0.00,0.12,-9.77,-15,-5,5
27052,-1.584,-0.066,0.609,-0.08,0.12,-9.77,-12,-6,0
27053,0.918,0.667,-0.062,-0.08,0.12,-9.77,-12,-6,0
27054,1.285,0.362,-0.062,-0.16,0.12,-9.84,-11,1,5
27055,0.796,-0.493,-0.490,-0.23,0.12,-9.84,-11,1,5
27056,0.857,-0.432,-0.428,-0.23,0.12,-9.84,-7,-1,7
27057,0.918,0.789,0.792,-0.23,0.12,-9.84,-7,-1,7
27058,-0.180,2.071,1.342,-0.23,0.05,-9.84,-7,-3,-1
27059,-1.279,2.864,1.586,-0.23,0.05,-9.84,-7,-3,-1
27060,-2.256,3.902,1.158,-0.16,0.05,-9.92,-12,2,0
27061,-2.378,4.878,-0.062,-0.16,-0.03,-9.92,-12,2,0
27062,-1.218,5.000,-1.344,-0.00,-0.03,-9.92,-15,-3,1
27063,0.247,3.780,-1.649,0.15,0.05,-9.92,-15,-3,1
27064,0.918,1.094,-0.978,0.30,0.05,-9.92,-12,-8,-2
27065,0.796,-2.141,-0.184,0.30,-0.03,-9.92,-12,-8,-2
27066,0.064,-4.704,0.365,0.30,0.05,-9.84,-11,-3,3
27067,0.186,-6.047,0.609,0.23,0.05,-9.84,-11,-3,3
27068,0.735,-6.230,0.060,0.15,0.05,-9.84,-9,-3,-3
27069,0.552,-5.437,-0.428,0.07,0.05,-9.84,-9,-3,-3
27070,-0.363,-3.606,-1.039,-0.00,0.05,-9.84,-8,-4,0
27071,-0.547,-1.958,-1.100,-0.16,-0.03,-9.84,-8,-4,0
27072,-1.096,-0.310,-0.917,-0.23,0.05,-9.84,-11,1,5
27073,-1.645,1.460,-0.490,-0.23,0.05,-9.84,-11,1,5
27074,-1.218,2.986,-0.245,-0.31,0.12,-9.84,-7,-9,3
27075,-0.302,3.352,-0.367,-0.23,0.12,-9.92,-7,-9,3
27076,-0.486,3.902,-0.795,-0.23,0.12,-9.84,-10,-2,4
27077,-0.669,4.268,-0.917,-0.23,0.12,-9.84,-10,-2,4
27078,-0.669,4.207,-1.222,-0.16,0.12,-9.84,-10,-6,4
27079,-0.974,3.352,-0.795,-0.08,0.05,-9.92,-10,-6,4
27080,-1.706,2.132,-0.245,-0.08,-0.03,-9.84,-16,-8,-4
27081,-1.828,0.484,0.243,-0.00,-0.11,-9.84,-16,-8,-4
27082,-1.096,-1.286,0.426,0.07,-0.11,-9.84,-15,-1,7
27083,0.430,-2.995,0.304,0.07,-0.11,-9.84,-15,-1,7
27084,1.956,-4.216,-0.245,0.15,-0.11,-9.84,-17,-3,3
27085,2.139,-5.132,-0.245,0.15,-0.03,-9.84,-17,-3,3
27086,1.407,-5.132,-0.306,0.07,-0.03,-9.84,-17,-3,3
27087,0.613,-4.094,-0.306,0.07,0.05,-9.84,-17,-3,3
27088,-0.119,-1.958,-0.184,-0.00,0.05,-9.84,-7,-3,-1
27089,-0.669,0.484,-0.123,-0.08,0.12,-9.92,-7,-3,-1
27090,-1.340,2.254,-0.184,-0.16,0.12,-9.84,-11,-5,1
27091,-1.828,3.352,-0.428,-0.16,0.12,-9.84,-11,-5,1
27092,-1.523,4.085,-1.039,-0.16,0.05,-9.84,-15,-7,3
27093,-0.608,4.207,-1.405,-0.08,0.12,-9.84,-15,-7,3
27094,0.186,3.475,-1.466,-0.08,0.12,-9.84,-11,1,-1
27095,0.430,1.827,-1.222,-0.00,0.12,-9.84,-11,1,-1
27096,0.064,0.179,-0.856,0.07,0.12,-9.84,-10,-6,0
27097,-0.363,-0.798,-0.551,0.07,0.05,-9.77,-10,-6,0
27098,-0.669,-1.714,-0.062,0.07,0.05,-9.77,-14,-2,6
27099,-0.363,-2.629,-0.184,0.15,0.05,-9.84,-14,-2,6
27100,-0.363,-2.690,-0.673,0.15,0.05,-9.84,-8,-6,-4
27101,-1.157,-2.629,-0.245,0.07,-0.03,-9.84,-8,-6,-4
27102,-1.767,-2.812,-0.123,-0.00,-0.11,-9.84,-11,-3,3
27103,-0.913,-2.385,-0.184,-0.00,-0.11,-9.84,-11,-3,3
27104,-0.119,-1.164,0.060,-0.08,-0.11,-9.84,-10,-4,0
27105,0.674,-0.188,0.182,-0.08,-0.11,-9.84,-10,-4,0
27106,1.040,0.362,-0.062,-0.16,-0.11,-9.92,-16,2,-2
27107,1.285,1.765,-0.062,-0.08,-0.03,-9.92,-16,2,-2
27108,1.223,2.498,0.060,-0.16,-0.03,-9.84,-14,-4,0
27109,0.491,2.315,0.182,-0.16,-0.03,-9.84,-14,-4,0
27110,-0.791,1.949,0.487,-0.08,-0.03,-9.92,-10,-6,4
27111,-1.279,1.827,0.487,-0.08,-0.03,-9.84,-10,-6,4
27112,-0.669,0.972,0.548,-0.08,-0.03,-9.84,-9,-3,3
27113,-0.119,-0.066,0.121,-0.00,-0.03,-9.84,-9,-3,3
27114,0.125,-1.103,0.060,-0.00,-0.03,-9.84,-6,-10,4
27115,0.491,-1.836,-0.062,-0.00,-0.03,-9.84,-6,-10,4
27116,0.796,-2.141,0.121,-0.00,-0.03,-9.84,-11,-7,5
27117,0.979,-2.385,0.548,-0.00,-0.03,-9.77,-11,-7,5
27118,0.735,-2.385,0.731,-0.00,-0.03,-9.77,-12,0,2
27119,0.125,-1.714,0.731,-0.00,-0.03,-9.77,-12,0,2
27120,-0.425,-0.493,0.487,-0.00,-0.03,-9.84,-8,-4,0
27121,-0.058,0.667,0.304,-0.00,-0.03,-9.84,-8,-4,0
27122,0.369,1.643,-0.062,-0.00,0.05,-9.84,-7,-3,5
27123,0.552,2.071,-0.184,-0.00,-0.03,-9.84,-7,-3,5
27124,0.186,1.460,-0.367,-0.00,-0.03,-9.84,-9,-3,3
27125,-0.608,0.728,-0.551,-0.00,0.05,-9.84,-9,-3,3
27126,-0.669,0.545,-0.490,-0.00,0.05,-9.84,-13,1,1
27127,0.003,0.240,-0.428,0.07,0.12,-9.84,-13,1,1
27128,0.674,-0.249,-0.123,0.07,0.12,-9.84,-6,2,-2
27129,0.125,-0.737,0.365,0.07,0.12,-9.84,-6,2,-2
27130,-1.706,-0.981,0.304,-0.00,0.05,-9.84,-9,-5,1
27131,-2.317,-0.676,0.060,-0.00,0.05,-9.84,-9,-5,1
27132,-1.340,-0.493,-0.001,-0.00,0.05,-9.84,-15,-3,5
27133,0.186,-0.554,-0.306,-0.00,-0.03,-9.92,-15,-3,5
27134,1.162,-0.493,-0.428,-0.00,-0.03,-9.92,-3,-5,3
27135,1.346,-0.371,-0.184,-0.08,-0.11,-9.92,-3,-5,3
27136,1.468,-0.432,0.243,-0.08,-0.11,-9.92,-12,-2,-4
27137,1.651,-0.615,0.731,-0.08,-0.11,-9.92,-12,-2,-4
27138,1.223,0.179,0.975,-0.08,-0.03,-9.92,-10,0,-2
27139,0.613,0.789,0.914,-0.08,-0.03,-9.84,-10,0,-2
27140,0.369,0.972,0.426,-0.08,-0.03,-9.84,-12,-2,4
27141,-0.180,0.911,-0.123,-0.08,0.05,-9.84,-12,-2,4
27142,-1.096,0.789,-0.551,-0.08,0.05,-9.84,-12,-8,6
27143,-1.340,0.545,-0.673,-0.08,0.05,-9.84,-12,-8,6
27144,-0.974,0.484,-0.551,-0.00,0.05,-9.84,-15,-3,9
27145,-0.547,0.117,-0.184,-0.00,0.12,-9.84,-15,-3,9
27146,-0.241,-0.432,0.121,-0.00,0.05,-9.84,-14,0,2
27147,-1.035,-0.554,0.121,-0.00,0.05,-9.84,-14,0,2
27148,-1.157,-0.432,-0.062,-0.00,0.05,-9.84,-7,-5,5
27149,-0.425,-0.493,-0.428,0.07,0.05,-9.84,-7,-5,5
27150,0.796,-0.371,-0.367,0.07,-0.03,-9.84,-10,-4,0
27151,1.040,-0.554,-0.367,-0.00,-0.03,-9.84,-10,-4,0
27152,0.308,-0.676,-0.245,-0.00,-0.03,-9.84,-12,0,6
27153,-0.119,-0.615,-0.001,-0.08,-0.11,-9.84,-12,0,6
27154,-0.119,-0.432,0.304,-0.08,-0.11,-9.84,-10,0,0
27155,-0.180,-0.066,2.379,-0.08,-0.11,-9.84,-10,0,0
27156,0.552,0.850,2.440,-0.08,-0.18,-9.84,-8,-8,-2
27157,3.543,1.277,3.417,-0.08,-0.03,-9.84,-8,-8,-2
27158,5.557,-0.737,3.844,-0.16,-0.03,-9.84,-10,-6,8
27159,1.162,-0.432,2.318,-0.16,-0.18,-9.84,-10,-6,8
27160,-3.537,1.827,0.365,-0.08,-0.26,-9.84,-8,-2,6
27161,-0.486,2.010,-2.199,-0.00,-0.11,-9.92,-8,-2,6
27162,5.069,0.850,-1.283,-0.00,0.12,-10.00,-8,-6,-2
27163,4.886,1.094,0.792,-0.00,0.20,-9.92,-8,-6,-2
27164,0.613,0.484,0.304,-0.08,0.20,-9.84,-4,-4,4
27165,-3.598,-2.934,1.097,-0.16,0.12,-9.77,-4,-4,4
27166,-5.552,-4.216,1.769,-0.08,0.05,-9.84,-11,-5,1
27167,-3.110,-1.958,0.975,-0.00,0.12,-9.84,-11,-5,1
27168,0.613,0.301,-0.551,-0.08,0.20,-9.92,-9,-7,3
27169,1.101,1.521,-1.954,-0.16,0.20,-9.84,-9,-7,3
27170,0.247,1.888,-2.382,-0.23,0.05,-9.77,-9,-3,-1
27171,0.064,1.216,-1.771,-0.16,-0.11,-9.69,-9,-3,-1
27172,-0.486,0.972,-0.856,-0.08,-0.11,-9.84,-10,-6,0
27173,0.186,0.850,-0.123,-0.00,-0.03,-9.92,-10,-6,0
27174,1.834,0.423,0.609,-0.00,0.05,-9.84,-15,-3,1
27175,1.651,0.423,-0.123,-0.08,0.05,-9.77,-15,-3,1
27176,0.003,0.423,-1.100,-0.08,-0.03,-9.77,-7,-5,3
27177,-0.974,0.056,-1.222,-0.00,0.05,-9.77,-7,-5,3
27178,-1.401,-0.127,-0.612,-0.00,0.05,-9.84,-12,-6,2
27179,-1.401,0.056,-0.001,-0.00,0.05,-9.84,-12,-6,2
27180,-1.096,0.117,1.220,-0.00,0.05,-9.84,-12,2,2
27181,-0.486,-1.225,1.891,-0.08,-0.03,-9.77,-12,2,2
27182,-0.119,-1.531,1.097,-0.08,-0.11,-9.77,-13,-3,3
27183,0.491,-0.188,0.548,-0.00,-0.11,-9.84,-13,-3,3
27184,2.505,0.545,0.060,0.07,-0.03,-9.84,-17,-1,3
27185,3.909,0.117,-0.428,0.07,-0.03,-9.84,-17,-1,3
27186,2.383,0.423,-0.245,0.07,-0.03,-9.77,-14,-2,-2
27187,-0.180,0.484,-0.062,-0.00,0.05,-9.77,-14,-2,-2
27188,-1.462,-0.554,0.365,-0.00,0.05,-9.77,-11,-3,1
27189,-1.401,-1.042,1.036,-0.00,0.05,-9.84,-11,-3,1
27190,-0.913,-0.615,1.158,-0.00,0.05,-9.84,-11,-5,5
27191,-0.608,-0.615,0.914,-0.08,0.05,-9.84,-11,-5,5
27192,-0.180,-0.371,0.182,-0.16,0.05,-9.77,-9,-7,3
27193,0.308,0.179,-0.734,-0.08,-0.03,-9.77,-9,-7,3
27194,0.979,0.667,-0.978,-0.08,-0.03,-9.77,-8,2,4
27195,0.735,0.667,-0.856,-0.08,0.05,-9.84,-8,2,4
27196,0.613,0.911,-0.612,-0.00,0.05,-9.84,-9,-9,1
27197,1.040,1.094,-0.062,-0.00,0.05,-9.84,-9,-9,1
27198,0.857,1.033,0.060,-0.00,-0.03,-9.84,-11,-7,3
27199,0.064,0.606,-0.001,-0.00,0.05,-9.84,-11,-7,3
27200,-0.425,0.423,-0.245,0.07,-0.03,-9.84,-12,-8,4
27201,-0.730,0.545,-0.428,0.07,0.05,-9.84,-12,-8,4
27202,0.125,-0.005,-0.734,0.07,0.05,-9.84,-12,-4,4
27203,0.125,-0.615,-0.795,0.07,0.05,-9.77,-12,-4,4
27204,-0.669,-0.920,-0.367,0.07,0.05,-9.77,-16,-8,2
27205,-1.523,-1.469,0.243,0.07,-0.03,-9.77,-16,-8,2
27206,-1.157,-1.836,0.975,-0.00,-0.03,-9.77,-12,-6,2
27207,0.125,-0.981,0.914,-0.00,-0.03,-9.84,-12,-6,2
27208,1.346,-0.127,0.426,-0.00,-0.03,-9.84,-12,0,4
27209,0.857,0.240,-0.184,-0.08,-0.03,-9.84,-12,0,4
27210,0.308,0.240,-0.734,-0.08,-0.03,-9.84,-8,6,0
27211,0.735,0.606,-0.795,-0.08,-0.03,-9.84,-8,6,0
27212,1.285,1.033,-0.490,-0.16,-0.03,-9.84,-14,2,6
27213,1.040,1.033,-0.245,-0.16,-0.03,-9.84,-14,2,6
27214,0.125,0.789,0.121,-0.16,0.05,-9.84,-8,0,0
27215,-0.486,0.301,0.487,-0.08,0.05,-9.84,-8,0,0
27216,-0.913,-0.127,0.304,-0.08,0.05,-9.84,-12,-2,4
27217,-0.913,0.117,0.121,-0.08,0.05,-9.84,-12,-2,4
27218,-0.730,0.362,-0.001,-0.00,0.05,-9.84,-7,-3,-1
27219,0.003,-0.249,-0.001,-0.00,-0.03,-9.84,-7,-3,-1
27220,0.491,-0.554,-0.184,-0.00,-0.03,-9.84,-8,-4,0
27221,0.796,-0.310,-0.306,0.07,-0.03,-9.84,-8,-4,0
27222,1.407,-0.554,-0.490,0.07,0.05,-9.84,-14,-4,2
27223,1.223,-0.859,-0.734,0.07,0.05,-9.84,-14,-4,2
27224,0.369,-0.798,-0.917,0.07,0.05,-9.84,-8,2,2
27225,-0.363,-0.066,-0.978,0.07,0.12,-9.84,-8,2,2
27226,-0.486,0.423,-1.039,-0.00,0.12,-9.84,-11,-3,5
27227,-1.157,0.972,-0.917,-0.00,0.12,-9.84,-11,-3,5
27228,-2.011,1.399,-0.856,-0.00,0.12,-9.84,-10,-4,4
27229,-1.828,1.949,-0.612,-0.00,0.05,-9.84,-10,-4,4
27230,-1.279,1.765,-0.184,-0.00,-0.03,-9.84,-6,2,8
27231,-1.035,0.972,0.365,-0.00,-0.03,-9.84,-6,2,8
27232,-0.730,-0.615,1.403,-0.00,-0.11,-9.84,-12,-2,0
27233,1.223,-1.042,0.548,-0.00,-0.11,-9.84,-12,-2,0
27234,4.947,-1.103,1.342,-0.00,-0.03,-9.84,-10,2,2
27235,5.374,-2.385,1.342,-0.00,-0.03,-9.84,-10,2,2
27236,1.162,-2.751,0.609,-0.00,-0.11,-9.77,-4,0,2
27237,-1.950,-1.714,0.548,-0.00,-0.03,-9.77,-4,0,2
27238,-0.302,-0.859,0.121,-0.00,0.05,-9.84,-11,-1,1
27239,2.078,-0.615,0.243,-0.08,0.12,-9.84,-11,-1,1
27240,0.796,0.117,-0.184,-0.00,0.12,-9.84,-5,-3,1
27241,-1.096,0.179,-0.184,-0.08,0.12,-9.77,-5,-3,1
27242,-2.256,-1.103,0.487,-0.08,0.05,-9.77,-3,-7,1
27243,-2.134,-1.531,0.792,-0.08,0.05,-9.84,-3,-7,1
27244,-0.180,-0.371,0.609,-0.00,0.12,-9.84,-6,-6,4
27245,1.529,0.728,0.426,-0.08,0.12,-9.84,-6,-6,4
27246,1.223,0.850,0.426,-0.08,0.05,-9.84,-18,-2,6
27247,0.857,0.362,0.853,-0.08,-0.03,-9.84,-18,-2,6
27248,1.040,0.117,0.670,-0.08,-0.11,-9.84,-7,-5,1
27249,1.285,0.179,1.220,-0.00,-0.03,-9.92,-7,-5,1
27250,1.101,-0.615,1.647,-0.00,-0.03,-9.92,-11,-1,-1
27251,1.590,-1.347,1.708,-0.00,-0.03,-9.92,-11,-1,-1
27252,2.017,-0.920,1.036,-0.00,0.05,-9.84,-10,0,0
27253,1.651,-0.737,0.792,-0.00,0.05,-9.84,-10,0,0
27254,0.125,-1.042,0.487,-0.00,0.12,-9.84,-8,-8,8
27255,-1.523,-0.554,0.121,-0.00,0.12,-9.84,-8,-8,8
27256,-1.218,0.667,-0.306,-0.00,0.20,-9.84,-8,-6,0
27257,-0.669,0.972,-0.306,-0.00,0.20,-9.84,-8,-6,0
27258,-1.340,1.094,-0.795,-0.00,0.12,-9.84,-14,-8,2
27259,-2.011,1.033,-0.612,-0.00,0.12,-9.84,-14,-8,2
27260,-1.340,0.179,0.060,-0.00,0.05,-9.84,-7,1,5
27261,0.186,-0.432,0.487,-0.08,-0.03,-9.84,-7,1,5
27262,2.261,-0.676,0.792,-0.08,-0.03,-9.84,-13,-1,1
27263,2.933,-0.737,0.731,-0.08,-0.03,-9.84,-13,-1,1
27264,1.773,-1.103,0.609,-0.16,-0.03,-9.84,-11,-1,1
27265,0.674,-0.920,0.365,-0.08,-0.03,-9.84,-11,-1,1
27266,0.613,-0.066,0.487,-0.08,-0.03,-9.84,-8,0,4
27267,0.735,0.972,0.548,-0.08,0.05,-9.84,-8,0,4
27268,0.186,1.460,0.853,-0.08,0.05,-9.84,-11,-5,3
27269,-0.913,1.643,0.670,-0.00,0.05,-9.84,-11,-5,3
27270,-1.462,1.643,0.304,-0.00,0.05,-9.84,-13,-3,7
27271,-1.279,1.460,0.487,0.07,0.05,-9.84,-13,-3,7
27272,-0.547,1.277,-0.001,0.07,0.05,-9.84,-9,-5,9
27273,0.552,1.216,-0.367,0.07,0.12,-9.84,-9,-5,9
27274,0.735,0.789,-0.612,-0.00,0.05,-9.84,-11,-5,1
27275,-0.119,0.179,-0.917,-0.00,0.05,-9.77,-11,-5,1
27276,-0.730,-0.432,-1.100,-0.00,-0.03,-9.77,-11,-7,5
27277,-0.425,-0.981,-0.856,-0.00,-0.03,-9.84,-11,-7,5
27278,-0.180,-1.164,-0.673,-0.00,-0.03,-9.84,-9,-3,1
27279,0.064,-1.408,-0.245,-0.00,-0.03,-9.84,-9,-3,1
27280,0.308,-1.775,0.060,-0.00,-0.11,-9.84,-9,-5,3
27281,0.613,-2.385,0.304,-0.00,-0.11,-9.84,-9,-5,3
27282,1.223,-2.324,0.182,-0.00,-0.11,-9.84,-7,-1,7
27283,1.712,-1.836,0.060,-0.00,-0.11,-9.84,-7,-1,7
27284,1.529,-1.286,-0.062,-0.00,-0.11,-9.92,-10,-4,6
27285,0.674,0.179,-0.123,-0.00,-0.03,-9.84,-10,-4,6
27286,0.552,1.155,0.731,-0.00,-0.03,-9.84,-8,0,4
27287,0.003,1.399,0.670,-0.00,-0.03,-9.84,-8,0,4
27288,-0.791,1.704,0.365,-0.00,0.05,-9.84,-8,-4,0
27289,-1.462,1.949,-0.001,-0.00,0.05,-9.84,-8,-4,0
27290,-1.218,1.582,-0.612,-0.00,0.05,-9.84,-6,-2,2
27291,-0.119,0.972,-0.612,-0.00,0.05,-9.84,-6,-2,2
27292,0.308,0.850,-0.795,-0.00,0.05,-9.84,-12,-6,8
27293,0.186,0.545,-0.428,-0.00,0.05,-9.84,-12,-6,8
27294,-0.363,0.056,-0.184,-0.00,-0.03,-9.84,-9,-7,1
27295,-0.608,-0.554,0.121,-0.00,-0.03,-9.84,-9,-7,1
27296,-0.241,-0.798,0.121,-0.00,-0.03,-9.84,-14,-6,2
27297,0.430,-0.859,-0.062,-0.00,-0.03,-9.84,-14,-6,2
27298,0.613,-0.920,-0.367,-0.00,-0.03,-9.84,-15,-5,5
27299,0.613,-1.042,-0.551,-0.00,-0.03,-9.84,-15,-5,5
27300,0.491,-0.920,-0.490,-0.00,-0.03,-9.84,-12,-4,4
27301,-0.058,-0.737,-0.245,-0.00,-0.03,-9.77,-12,-4,4
27302,-0.425,-0.249,0.121,-0.00,-0.03,-9.77,-14,-2,0
27303,-0.486,0.301,0.426,-0.00,-0.03,-9.84,-14,-2,0
27304,-0.180,0.484,0.609,-0.08,-0.03,-9.84,-17,-9,3
27305,-0.363,0.728,0.121,-0.08,-0.03,-9.77,-17,-9,3
27306,0.003,0.972,0.426,-0.00,-0.03,-9.84,-14,-2,4
27307,0.613,0.667,0.426,-0.00,-0.03,-9.84,-14,-2,4
27308,0.674,0.301,0.487,-0.00,-0.03,-9.77,-10,-2,2
27309,0.979,0.240,0.121,-0.00,-0.03,-9.84,-10,-2,2
27310,1.101,0.179,0.060,-0.00,0.05,-9.84,-11,-3,-5
27311,0.796,-0.249,-0.184,-0.00,0.05,-9.84,-11,-3,-5
27312,0.247,-0.249,-0.367,-0.00,0.05,-9.77,-9,1,1
27313,-0.241,-0.066,-0.367,-0.00,0.12,-9.77,-9,1,1
27314,-0.852,-0.066,-0.428,-0.00,0.12,-9.84,-11,-3,3
27315,-1.401,-0.066,-0.551,-0.00,0.12,-9.84,-11,-3,3
27316,-1.340,0.056,-0.428,0.07,0.12,-9.84,-12,-4,8
27317,-1.096,0.179,-0.490,-0.00,0.05,-9.77,-12,-4,8
27318,-0.547,0.423,-0.612,-0.00,0.05,-9.84,-12,-2,0
27319,0.064,0.301,-0.551,-0.00,0.05,-9.84,-12,-2,0
27320,0.308,0.117,-0.428,-0.00,0.05,-9.77,-9,-9,-1
27321,0.430,0.056,-0.306,-0.00,-0.03,-9.84,-9,-9,-1
27322,0.308,-0.005,-0.062,-0.00,-0.03,-9.77,-10,-4,8
27323,0.247,0.056,-0.001,-0.00,-0.03,-9.77,-10,-4,8
27324,0.125,0.117,0.121,-0.00,-0.03,-9.77,-7,-5,5
27325,0.186,0.056,0.121,-0.00,-0.03,-9.77,-7,-5,5
27326,0.064,0.117,-0.062,-0.00,-0.03,-9.77,-15,-9,3
27327,-0.058,0.117,-0.123,-0.00,-0.03,-9.77,-15,-9,3
27328,-0.241,0.056,-0.123,-0.00,-0.03,-9.77,-6,-2,2
27329,-0.302,-0.371,-0.062,-0.00,-0.03,-9.77,-6,-2,2
27330,-0.058,-0.615,-0.062,-0.00,-0.03,-9.77,-12,0,6
27331,0.186,-0.676,-0.001,-0.00,-0.03,-9.77,-12,0,6
27332,0.491,-0.676,-0.062,-0.00,-0.03,-9.77,-14,-4,4
27333,0.247,-0.798,-0.245,-0.00,-0.03,-9.77,-14,-4,4
27334,0.125,-0.737,-0.367,-0.00,-0.03,-9.77,-13,-1,3
27335,0.552,-0.493,-0.551,-0.08,0.05,-9.77,-13,-1,3
27336,0.552,-0.371,-0.734,-0.08,0.05,-9.77,-12,-6,2
27337,-0.608,0.484,-0.673,-0.08,-0.03,-9.77,-12,-6,2
27338,-1.340,0.545,0.182,-0.08,-0.03,-9.77,-9,-5,7
27339,-0.547,0.484,0.121,-0.08,0.05,-9.77,-9,-5,7
27340,0.247,0.789,-0.123,-0.08,0.05,-9.77,-13,-1,3
27341,0.003,0.789,-0.062,-0.08,0.05,-9.77,-13,-1,3
27342,0.064,-0.127,-0.551,-0.08,0.05,-9.77,-11,-3,5
27343,0.308,-0.615,-0.795,-0.00,0.05,-9.77,-11,-3,5
27344,0.247,-0.371,-0.551,-0.00,-0.03,-9.77,-10,-6,10
27345,0.003,-0.371,-0.184,-0.00,-0.03,-9.77,-10,-6,10
27346,-0.486,-0.371,0.365,-0.00,-0.03,-9.77,-14,-6,6
27347,-0.791,-0.005,0.670,-0.00,-0.03,-9.77,-14,-6,6
27348,-0.486,0.423,0.548,-0.00,-0.03,-9.77,-10,-6,-4
27349,-0.547,0.545,0.548,-0.00,-0.11,-9.77,-10,-6,-4
27350,-0.241,0.484,0.487,-0.00,-0.11,-9.77,-17,-1,9
27351,0.552,0.423,0.304,0.07,-0.11,-9.77,-17,-1,9
27352,1.223,0.301,0.182,0.07,-0.11,-9.77,-9,-1,1
27353,1.162,-0.066,0.243,0.07,-0.11,-9.84,-9,-1,1
27354,0.857,-0.188,0.182,0.07,-0.03,-9.77,-14,0,2
27355,0.308,-0.249,0.304,0.07,-0.03,-9.77,-14,0,2
27356,0.003,-0.127,0.304,-0.00,-0.03,-9.77,-15,3,1
27357,0.064,-0.127,-0.001,-0.00,0.05,-9.84,-15,3,1
27358,-0.058,-0.127,-0.245,-0.00,0.05,-9.77,-8,-14,4
27359,-0.730,-0.249,-0.306,-0.00,0.05,-9.77,-8,-14,4
27360,-0.974,-0.310,-0.490,-0.00,0.05,-9.77,-8,-4,4
27361,-0.669,-0.249,-0.306,-0.00,0.05,-9.77,-8,-4,4
27362,-0.241,-0.249,-0.062,-0.00,0.05,-9.84,-11,-7,9
27363,0.003,0.056,-0.123,-0.08,0.05,-9.84,-11,-7,9
27364,0.125,0.179,-0.123,-0.08,0.05,-9.77,-11,-1,-1
27365,0.003,0.301,-0.428,-0.08,0.05,-9.77,-11,-1,-1
27366,0.064,0.484,-0.367,-0.08,0.05,-9.77,-2,-8,4
27367,0.064,0.484,-0.245,-0.08,0.05,-9.77,-2,-8,4
27368,-0.180,0.362,-0.001,-0.08,-0.03,-9.77,-10,4,4
27369,-0.302,0.423,0.060,-0.08,0.05,-9.84,-10,4,4
27370,-0.058,0.850,0.304,-0.08,-0.03,-9.77,-11,-7,1
27371,-0.302,0.911,0.365,-0.08,-0.03,-9.77,-11,-7,1
27372,-0.608,0.789,0.182,-0.00,-0.03,-9.77,-1,-9,-3
27373,-0.425,0.728,0.304,-0.00,-0.03,-9.84,-1,-9,-3
27374,0.369,0.606,0.182,-0.00,-0.03,-9.84,-10,0,-4
27375,0.613,0.056,-0.123,-0.00,-0.03,-9.84,-10,0,-4
27376,0.674,-0.432,-0.062,-0.00,-0.03,-9.84,-9,-7,5
27377,0.613,-0.737,-0.062,-0.00,-0.03,-9.84,-9,-7,5
27378,0.552,-0.859,-0.001,0.07,-0.03,-9.77,-6,-8,2
27379,0.552,-0.981,-0.123,0.07,-0.03,-9.84,-6,-8,2
27380,0.186,-0.798,-0.001,0.07,0.05,-9.77,-9,-5,-1
27381,-0.302,-0.920,-0.001,-0.00,0.05,-9.77,-9,-5,-1
27382,-0.730,-0.737,0.121,-0.00,0.05,-9.77,-14,0,2
27383,-0.730,-0.493,0.121,-0.00,0.05,-9.84,-14,0,2
27384,-0.363,-0.127,0.182,-0.00,0.05,-9.84,-9,-3,3
27385,0.125,0.362,0.121,-0.00,0.05,-9.84,-9,-3,3
27386,0.491,0.484,-0.001,-0.00,0.05,-9.84,-9,3,5
27387,0.125,0.606,-0.184,-0.00,0.05,-9.77,-9,3,5
27388,-0.058,0.667,-0.001,-0.00,-0.03,-9.84,-7,1,9
27389,-0.180,0.667,-0.001,-0.00,-0.03,-9.84,-7,1,9
27390,0.064,0.484,0.243,-0.00,-0.03,-9.77,-13,-3,7
27391,0.247,0.056,0.426,-0.00,-0.03,-9.84,-13,-3,7
27392,0.247,-0.249,0.060,-0.00,-0.03,-9.77,-9,-3,3
27393,0.491,-0.432,-0.001,-0.00,-0.03,-9.77,-9,-3,3
27394,0.613,-0.676,-0.245,-0.00,0.05,-9.77,-14,0,2
27395,0.491,-0.798,-0.367,-0.00,0.05,-9.77,-14,0,2
27396,0.125,-0.859,-0.367,-0.00,0.05,-9.77,-9,-1,3
27397,-0.302,-0.432,-0.306,-0.00,0.05,-9.77,-9,-1,3
27398,-0.730,-0.310,-0.306,-0.00,0.05,-9.77,-9,1,5
27399,-0.852,0.117,-0.123,-0.00,0.05,-9.77,-9,1,5
27400,-0.791,0.606,-0.245,-0.00,0.05,-9.77,-18,-4,4
27401,-0.608,0.850,-0.184,-0.00,0.05,-9.77,-18,-4,4
27402,-0.363,0.850,-0.123,-0.00,0.05,-9.77,-11,-7,1
27403,-0.119,0.850,-0.184,-0.00,-0.03,-9.77,-11,-7,1
27404,0.186,0.789,-0.123,-0.08,-0.03,-9.77,-13,-3,3
27405,0.552,0.545,-0.001,-0.08,-0.03,-9.77,-13,-3,3
27406,0.857,0.056,-0.123,-0.00,-0.03,-9.77,-14,-4,0
27407,0.735,-0.127,-0.062,-0.00,-0.03,-9.77,-14,-4,0
27408,0.430,-0.371,-0.001,-0.00,-0.03,-9.77,-10,-4,0
27409,0.125,-0.493,-0.123,-0.00,-0.03,-9.77,-10,-4,0
27410,-0.425,-0.554,-0.184,-0.00,0.05,-9.69,-11,-3,3
27411,-0.547,-0.493,-0.306,-0.00,0.05,-9.77,-11,-3,3
27412,-0.730,-0.371,-0.245,-0.00,0.05,-9.69,-14,0,-2
27413,-0.486,-0.249,-0.184,-0.00,0.05,-9.77,-14,0,-2
27414,-0.425,-0.310,-0.062,-0.00,0.05,-9.77,-12,-6,4
27415,-0.302,-0.188,-0.062,-0.00,-0.03,-9.77,-12,-6,4
27416,0.186,-0.188,-0.062,-0.00,-0.03,-9.77,-9,-7,3
27417,0.369,0.056,0.121,-0.00,-0.03,-9.77,-9,-7,3
27418,0.552,-0.005,0.182,-0.00,-0.03,-9.77,-15,-3,3
27419,0.552,0.117,0.182,-0.00,-0.03,-9.77,-15,-3,3
27420,0.491,0.240,0.182,-0.00,-0.03,-9.77,-11,-1,1
27421,0.308,0.117,0.243,-0.00,-0.03,-9.77,-11,-1,1
27422,0.369,0.117,0.304,-0.00,-0.03,-9.77,-7,-5,1
27423,0.247,-0.005,0.304,-0.00,-0.03,-9.77,-7,-5,1
27424,0.186,-0.249,0.243,-0.00,0.05,-9.77,-9,-7,3
27425,-0.119,-0.432,0.121,-0.00,0.05,-9.77,-9,-7,3
27426,-0.180,-0.615,0.365,-0.00,0.05,-9.77,-9,3,3
27427,-0.119,-0.554,0.121,-0.00,0.05,-9.77,-9,3,3
27428,-0.058,-0.188,0.182,-0.00,0.05,-9.84,-8,-6,4
27429,-0.119,0.240,0.182,-0.00,0.05,-9.84,-8,-6,4
27430,-0.180,0.606,0.121,-0.08,0.05,-9.84,-7,-3,9
27431,-0.425,0.545,-0.001,-0.08,0.05,-9.84,-7,-3,9
27432,-0.180,0.972,-0.062,-0.00,0.05,-9.84,-12,0,6
27433,0.064,0.911,0.121,-0.00,-0.03,-9.84,-12,0,6
27434,0.186,0.789,0.121,-0.00,-0.03,-9.84,-7,-7,-1
27435,0.125,0.606,0.060,-0.00,-0.03,-9.84,-7,-7,-1
27436,0.125,0.240,0.121,-0.00,-0.03,-9.84,-10,-2,4
27437,0.064,-0.127,0.060,-0.00,-0.03,-9.84,-10,-2,4
27438,0.247,-0.371,-0.001,0.07,-0.03,-9.84,-11,-7,11
27439,0.125,-0.554,-0.062,0.07,-0.03,-9.84,-11,-7,11
27440,0.064,-0.676,-0.062,-0.00,-0.03,-9.84,-14,-2,8
27441,-0.180,-0.737,-0.123,-0.00,0.05,-9.77,-14,-2,8
27442,-0.302,-0.798,-0.062,0.07,0.05,-9.84,-11,-9,1
27443,-0.119,-0.615,-0.184,-0.00,0.05,-9.84,-11,-9,1
27444,-0.119,-0.371,-0.184,-0.00,0.05,-9.84,-13,-9,3
27445,0.064,-0.249,-0.184,-0.00,0.05,-9.84,-13,-9,3
27446,0.003,0.056,-0.184,-0.00,0.05,-9.84,-18,-4,2
27447,0.003,0.179,-0.184,-0.00,0.05,-9.84,-18,-4,2
27448,0.003,0.179,-0.123,-0.00,0.05,-9.77,-10,-4,-4
27449,0.186,0.301,-0.123,-0.08,-0.03,-9.77,-10,-4,-4
27450,0.186,0.117,0.121,-0.08,-0.03,-9.84,-14,0,-2
27451,0.125,0.056,0.182,-0.08,-0.03,-9.84,-14,0,-2
27452,0.064,-0.066,0.182,-0.08,-0.03,-9.77,-9,-5,1
27453,0.247,-0.127,-0.001,-0.08,-0.03,-9.77,-9,-5,1
27454,0.125,-0.005,0.182,-0.08,-0.03,-9.77,-10,-2,4
27455,0.064,-0.066,0.243,-0.08,-0.03,-9.77,-10,-2,4
27456,0.064,-0.066,0.243,-0.08,0.05,-9.77,-13,-3,5
27457,-0.058,0.301,0.121,-0.08,0.05,-9.77,-13,-3,5
27458,-0.119,0.545,0.182,-0.00,0.05,-9.77,-12,2,-2
27459,-0.058,0.484,0.060,-0.00,0.05,-9.84,-12,2,-2
27460,-0.058,0.423,-0.001,-0.00,0.05,-9.84,-7,-3,5
27461,-0.058,0.423,-0.062,-0.00,0.05,-9.84,-7,-3,5
27462,0.125,0.362,-0.062,-0.00,0.05,-9.84,-10,-8,4
27463,0.064,0.240,-0.062,-0.00,0.05,-9.84,-10,-8,4
27464,-0.058,-0.005,-0.123,-0.00,0.05,-9.84,-17,-1,7
27465,-0.058,-0.188,-0.123,-0.00,0.05,-9.84,-17,-1,7
27466,0.003,-0.310,-0.001,-0.00,0.05,-9.84,-9,-5,3
27467,-0.119,-0.310,0.060,-0.00,0.05,-9.84,-9,-5,3
27468,-0.180,-0.249,0.182,-0.00,0.05,-9.84,-11,1,3
27469,-0.180,-0.127,0.121,-0.00,0.05,-9.84,-11,1,3
27470,-0.119,-0.127,0.243,-0.00,0.05,-9.84,-6,-6,8
27471,-0.058,-0.066,0.121,-0.00,0.05,-9.84,-6,-6,8
27472,0.064,-0.005,0.182,-0.00,0.05,-9.84,-5,-1,7
27473,0.430,0.056,0.060,-0.00,0.05,-9.84,-5,-1,7
27474,0.613,0.117,-0.001,-0.00,-0.03,-9.84,-9,-7,5
27475,0.491,-0.127,-0.001,-0.00,0.05,-9.84,-9,-7,5
27476,0.186,-0.127,0.060,-0.00,-0.03,-9.84,-10,-6,8
27477,0.003,-0.188,-0.123,-0.00,-0.03,-9.84,-10,-6,8
27478,-0.119,-0.127,-0.062,-0.00,-0.03,-9.84,-11,-1,3
27479,-0.119,-0.066,-0.001,-0.00,0.05,-9.84,-11,-1,3
27480,-0.241,-0.310,-0.184,-0.00,0.05,-9.84,-8,-8,6
27481,-0.241,-0.432,-0.062,-0.00,0.05,-9.84,-8,-8,6
27482,-0.241,-0.554,-0.001,-0.00,0.05,-9.84,-11,-11,-1
27483,-0.058,-0.249,-0.428,0.07,0.05,-9.84,-11,-11,-1
27484,0.430,-0.310,-0.184,0.07,0.05,-9.84,-14,0,0
27485,0.125,-0.554,-0.428,-0.00,0.05,-9.84,-14,0,0
27486,0.003,-0.798,-0.184,-0.00,0.05,-9.77,-14,2,8
27487,0.186,-0.615,-0.367,-0.00,-0.03,-9.77,-14,2,8
27488,0.247,-0.371,-0.001,-0.00,-0.03,-9.84,-11,-5,5
27489,0.125,-0.127,-0.123,-0.00,-0.03,-9.84,-11,-5,5
27490,-0.058,-0.127,-0.062,-0.08,-0.03,-9.84,-10,-8,0
27491,-0.180,0.117,-0.001,-0.08,-0.03,-9.84,-10,-8,0
27492,-0.302,0.362,-0.184,-0.08,-0.03,-9.84,-8,0,6
27493,-0.241,0.423,-0.062,-0.08,-0.03,-9.84,-8,0,6
27494,-0.119,0.423,-0.001,-0.08,-0.03,-9.84,-10,-4,2
27495,0.125,0.484,0.121,-0.08,-0.03,-9.84,-10,-4,2
27496,0.125,0.606,0.121,-0.08,0.05,-9.84,-13,-1,3
27497,0.064,0.545,0.121,-0.08,0.05,-9.84,-13,-1,3
27498,0.003,0.423,0.060,-0.08,0.05,-9.84,-7,-5,5
27499,0.003,0.362,0.121,-0.00,0.05,-9.84,-7,-5,5
27500,0.064,0.301,0.060,-0.00,0.05,-9.84,-14,-6,2
27501,0.125,0.240,0.060,-0.00,0.05,-9.84,-14,-6,2
27502,-0.058,0.179,-0.062,-0.00,-0.03,-9.84,-13,-1,1
27503,0.003,0.117,-0.123,-0.00,-0.03,-9.84,-13,-1,1
27504,-0.119,0.056,-0.062,-0.00,0.05,-9.84,-16,0,0
27505,0.064,-0.127,0.060,0.07,0.05,-9.84,-16,0,0
27506,0.003,-0.371,-0.001,0.07,0.05,-9.84,-15,-3,3
27507,-0.058,-0.310,0.060,-0.00,0.05,-9.84,-15,-3,3
27508,0.003,-0.310,-0.062,-0.00,0.05,-9.84,-7,-5,5
27509,0.003,-0.310,-0.245,-0.00,0.05,-9.84,-7,-5,5
27510,-0.058,-0.249,-0.306,-0.00,0.05,-9.84,-10,-2,2
27511,-0.058,-0.066,-0.306,-0.00,0.05,-9.84,-10,-2,2
27512,-0.058,-0.127,-0.367,-0.00,0.05,-9.84,-12,-8,2
27513,0.125,-0.066,-0.306,-0.00,0.05,-9.84,-12,-8,2
27514,0.308,-0.188,-0.245,-0.00,0.05,-9.84,-7,-7,5
27515,0.003,-0.127,-0.367,-0.00,0.05,-9.84,-7,-7,5
27516,-0.180,-0.310,-0.245,-0.00,0.05,-9.84,-13,-1,1
27517,-0.363,-0.371,-0.184,-0.00,0.05,-9.84,-13,-1,1
27518,-0.302,-0.310,-0.123,-0.00,0.05,-9.84,-11,-7,3
27519,-0.180,-0.066,-0.123,-0.08,0.05,-9.84,-11,-7,3
27520,-0.119,0.179,-0.062,-0.08,0.05,-9.84,-10,-4,2
27521,-0.119,0.240,-0.123,-0.08,0.05,-9.84,-10,-4,2
27522,0.003,0.301,-0.001,-0.08,0.05,-9.84,-10,-8,4
27523,0.186,0.484,-0.001,-0.08,-0.03,-9.84,-10,-8,4
27524,0.247,0.484,0.060,-0.08,-0.03,-9.84,-11,3,-1
27525,0.186,0.301,0.060,-0.08,-0.03,-9.84,-11,3,-1
27526,0.247,0.301,0.182,-0.08,-0.03,-9.84,-7,-9,1
27527,0.064,0.301,0.060,-0.08,-0.03,-9.84,-7,-9,1
27528,0.064,0.423,0.182,-0.08,-0.03,-9.84,-11,3,5
27529,-0.180,0.423,0.060,-0.08,-0.03,-9.84,-11,3,5
27530,-0.119,0.423,-0.001,-0.08,-0.03,-9.84,-10,-2,-2
27531,-0.363,0.117,0.060,-0.08,-0.03,-9.84,-10,-2,-2
27532,-0.241,-0.005,0.121,-0.00,-0.03,-9.84,-8,0,2
27533,-0.058,-0.188,0.121,-0.00,-0.03,-9.84,-8,0,2
27534,0.186,-0.493,0.182,-0.00,-0.03,-9.84,-11,-9,5
27535,0.247,-0.493,0.121,-0.00,-0.03,-9.84,-11,-9,5
27536,0.369,-0.432,-0.062,-0.00,-0.03,-9.84,-10,-4,2
27537,0.552,-0.310,-0.123,-0.00,-0.03,-9.84,-10,-4,2
27538,0.369,-0.188,-0.245,-0.00,-0.03,-9.84,-10,-4,4
27539,0.186,-0.127,-0.306,-0.00,-0.03,-9.84,-10,-4,4
27540,-0.180,-0.066,-0.245,-0.00,-0.03,-9.84,-11,-3,5
27541,-0.363,-0.005,-0.184,-0.00,0.05,-9.84,-11,-3,5
27542,-0.486,0.056,-0.123,-0.00,0.05,-9.84,-4,-4,0
27543,-0.180,-0.127,-0.184,-0.00,0.05,-9.84,-4,-4,0
27544,-0.119,0.117,-0.245,-0.00,-0.03,-9.84,-9,-5,9
27545,0.064,0.056,-0.551,-0.00,-0.03,-9.84,-9,-5,9
27546,0.308,-0.188,-0.551,-0.00,-0.03,-9.84,-11,-5,9
27547,0.308,-0.432,-0.673,-0.00,0.05,-9.84,-11,-5,9
27548,0.125,-0.615,-0.612,-0.00,-0.03,-9.84,-14,-6,2
27549,-0.180,-0.859,-0.428,-0.00,-0.03,-9.84,-14,-6,2
27550,-0.302,-0.798,-0.245,-0.00,-0.03,-9.84,-6,-4,4
27551,-0.180,-0.859,-0.001,-0.00,-0.03,-9.84,-6,-4,4
27552,0.003,-0.615,-0.062,-0.00,-0.03,-9.84,-10,-8,-2
27553,0.003,-0.371,-0.306,-0.08,-0.03,-9.84,-10,-8,-2
27554,-0.058,-0.310,-0.367,-0.08,-0.03,-9.84,-11,-5,3
27555,-0.058,-0.188,-0.306,-0.08,-0.03,-9.84,-11,-5,3
27556,0.369,-0.188,-0.123,-0.08,-0.03,-9.84,-12,-4,8
27557,0.552,-0.127,0.182,-0.08,-0.03,-9.84,-12,-4,8
27558,0.552,-0.005,0.304,-0.08,-0.03,-9.84,-15,3,1
27559,0.308,0.056,0.365,-0.08,0.05,-9.84,-15,3,1
27560,0.186,0.301,0.243,-0.08,0.05,-9.84,-12,-4,4
27561,0.064,0.606,0.060,-0.08,0.05,-9.84,-12,-4,4
27562,0.003,0.728,-0.001,-0.08,0.05,-9.84,-10,-4,2
27563,-0.425,0.850,-0.001,-0.08,0.05,-9.84,-10,-4,2
27564,-0.486,0.789,0.060,-0.08,0.05,-9.84,-14,0,0
27565,-0.425,0.667,0.121,-0.08,0.05,-9.84,-14,0,0
27566,-0.302,0.240,0.243,-0.00,0.05,-9.77,-14,-6,0
27567,-0.119,0.117,0.121,-0.00,0.05,-9.77,-14,-6,0
27568,0.064,0.056,0.060,-0.00,0.05,-9.84,-12,-4,4
27569,0.186,0.056,0.243,-0.00,0.05,-9.84,-12,-4,4
27570,0.186,-0.310,0.060,-0.00,0.05,-9.77,-9,-7,5
27571,0.186,-0.249,0.121,-0.00,-0.03,-9.84,-9,-7,5
27572,0.247,-0.249,0.060,-0.00,-0.03,-9.84,-14,-6,0
27573,0.186,-0.188,0.304,-0.00,-0.03,-9.84,-14,-6,0
27574,0.308,-0.310,0.243,-0.00,-0.03,-9.77,-16,-6,2
27575,0.247,-0.432,0.121,-0.00,-0.03,-9.84,-16,-6,2
27576,0.247,-0.615,-0.001,-0.00,-0.03,-9.77,-12,-10,6
27577,0.125,-0.615,0.060,-0.00,-0.03,-9.77,-12,-10,6
27578,0.003,-0.615,-0.001,-0.00,-0.03,-9.77,-13,1,1
27579,-0.058,-0.371,0.060,-0.00,-0.03,-9.84,-13,1,1
27580,0.064,-0.066,0.060,-0.00,-0.03,-9.84,-12,2,4
27581,0.003,0.179,-0.001,-0.00,-0.03,-9.84,-12,2,4
27582,0.003,0.240,-0.062,-0.08,-0.03,-9.84,-13,-1,3
27583,0.125,0.423,-0.062,-0.00,0.05,-9.84,-13,-1,3
27584,0.308,0.301,-0.062,-0.00,0.05,-9.84,-9,-1,3
27585,0.125,0.056,-0.123,-0.00,0.05,-9.84,-9,-1,3
27586,0.064,-0.371,-0.062,-0.08,0.05,-9.84,-15,-3,7
27587,0.003,-0.493,-0.123,-0.00,0.05,-9.84,-15,-3,7
27588,-0.119,-0.432,-0.001,-0.08,0.05,-9.84,-13,-5,1
27589,-0.241,-0.432,-0.062,-0.08,0.05,-9.84,-13,-5,1
27590,-0.241,-0.005,-0.062,-0.00,0.05,-9.77,-5,-5,5
27591,0.064,0.179,-0.001,-0.00,0.05,-9.84,-5,-5,5
27592,0.003,0.240,-0.062,-0.00,0.05,-9.84,-10,-6,4
27593,0.003,0.117,-0.123,-0.00,0.05,-9.84,-10,-6,4
27594,0.064,0.240,-0.184,-0.00,0.05,-9.84,-10,-4,4
27595,0.003,0.301,-0.062,-0.00,0.05,-9.84,-10,-4,4
27596,0.003,0.117,0.060,-0.00,-0.03,-9.84,-11,-5,3
27597,0.064,-0.005,0.121,-0.00,0.05,-9.84,-11,-5,3
27598,-0.058,-0.066,-0.001,-0.00,-0.03,-9.84,-13,-3,-1
27599,-0.180,-0.066,-0.123,-0.00,-0.03,-9.84,-13,-3,-1
27600,-0.302,-0.188,-0.001,-0.00,-0.03,-9.84,-11,-7,3
27601,-0.119,-0.310,0.060,-0.00,-0.03,-9.84,-11,-7,3
27602,-0.119,-0.432,-0.001,-0.00,-0.03,-9.84,-8,-8,4
27603,-0.058,-0.554,-0.062,-0.00,-0.03,-9.84,-8,-8,4
27604,0.186,-0.493,0.060,-0.00,-0.03,-9.84,-7,3,3
27605,0.186,-0.554,0.243,-0.00,-0.03,-9.84,-7,3,3
27606,-0.058,-0.554,0.243,-0.00,-0.03,-9.84,-11,-5,1
27607,-0.180,-0.615,0.304,-0.08,-0.03,-9.84,-11,-5,1
27608,0.186,-0.371,0.243,-0.08,-0.03,-9.84,-6,-6,4
27609,0.796,0.056,0.060,-0.08,0.05,-9.84,-6,-6,4
27610,0.857,0.484,-0.001,-0.08,0.05,-9.84,-12,-8,2
27611,0.552,0.789,-0.123,-0.00,0.05,-9.84,-12,-8,2
27612,0.247,0.728,0.060,-0.00,0.05,-9.84,-13,1,3
27613,-0.669,0.728,0.060,-0.00,0.05,-9.84,-13,1,3
27614,-1.279,0.362,0.365,-0.00,0.05,-9.84,-10,2,4
27615,-1.218,0.117,0.182,-0.00,0.05,-9.84,-10,2,4
27616,-0.608,-0.005,0.243,-0.00,0.05,-9.84,-8,-10,4
27617,0.003,0.117,0.121,-0.00,-0.03,-9.84,-8,-10,4
27618,0.552,-0.127,0.182,-0.00,-0.03,-9.84,-10,-6,8
27619,0.552,-0.127,0.426,-0.08,-0.03,-9.84,-10,-6,8
27620,0.247,-0.249,0.548,-0.08,-0.03,-9.84,-9,-3,3
27621,0.308,-0.127,0.792,-0.08,-0.03,-9.84,-9,-3,3
27622,0.125,0.179,0.792,-0.08,-0.03,-9.84,-10,-2,-2
27623,0.186,0.850,0.670,-0.08,-0.03,-9.84,-10,-2,-2
27624,0.369,1.643,0.365,-0.08,-0.03,-9.84,-15,-5,7
27625,0.125,2.010,0.182,-0.08,0.05,-9.84,-15,-5,7
27626,-0.486,2.071,-0.062,-0.08,0.05,-9.84,-9,-9,3
27627,-1.035,2.254,-0.245,-0.00,0.05,-9.84,-9,-9,3
27628,-1.218,2.315,-0.062,-0.00,0.05,-9.84,-13,-5,3
27629,-0.852,1.888,0.060,0.07,0.05,-9.84,-13,-5,3
27630,-0.363,1.216,-0.123,0.07,0.05,-9.84,-7,-3,-1
27631,0.247,0.484,-0.062,0.07,0.05,-9.84,-7,-3,-1
27632,0.735,-0.676,-0.123,0.07,0.05,-9.84,-12,-8,2
27633,1.040,-1.897,-0.123,0.07,0.05,-9.84,-12,-8,2
27634,0.857,-2.385,0.060,0.07,0.05,-9.84,-8,-2,4
27635,0.613,-2.507,0.060,0.07,0.12,-9.84,-8,-2,4
27636,0.064,-1.958,0.060,-0.00,0.05,-9.84,-9,-5,7
27637,-0.852,-0.859,0.060,-0.00,0.05,-9.84,-9,-5,7
27638,-1.584,0.606,0.060,-0.00,0.05,-9.84,-8,-4,2
27639,-1.584,1.827,0.060,-0.00,0.05,-9.84,-8,-4,2
27640,-1.279,2.437,0.060,-0.08,0.05,-9.84,-13,-5,-1
27641,-0.974,2.559,-0.001,-0.08,-0.03,-9.84,-13,-5,-1
27642,-0.425,2.559,-0.001,-0.00,-0.03,-9.84,-7,-9,1
27643,0.613,2.071,-0.001,-0.00,-0.03,-9.84,-7,-9,1
27644,1.468,1.277,-0.123,0.07,-0.03,-9.84,-13,-5,1
27645,1.712,0.728,-0.001,0.07,-0.03,-9.84,-13,-5,1
27646,0.918,-0.249,-0.245,0.07,-0.03,-9.77,-11,-5,5
27647,-0.180,-1.408,-0.367,-0.00,-0.03,-9.77,-11,-5,5
27648,-0.547,-1.958,-0.001,-0.00,-0.03,-9.77,-11,-7,5
27649,0.186,-2.263,0.426,0.07,-0.03,-9.77,-11,-7,5
27650,0.796,-2.263,0.304,0.07,0.05,-9.77,-11,-7,1
27651,0.796,-2.385,0.426,-0.00,0.05,-9.77,-11,-7,1
27652,-0.302,-2.629,0.548,-0.08,0.05,-9.77,-5,-1,3
27653,-1.645,-2.141,0.365,-0.08,-0.03,-9.77,-5,-1,3
27654,-1.584,-0.737,0.365,-0.08,-0.03,-9.77,-9,-7,-7
27655,-0.119,1.094,0.426,-0.08,0.05,-9.84,-9,-7,-7
27656,1.346,2.254,0.182,-0.08,0.05,-9.92,-13,3,1
27657,1.529,2.803,0.182,-0.08,-0.03,-9.84,-13,3,1
27658,0.491,2.681,-0.001,-0.08,-0.03,-9.84,-7,-5,7
27659,-0.608,1.949,0.121,-0.08,-0.11,-9.84,-7,-5,7
27660,-0.730,1.216,0.182,-0.08,-0.11,-9.84,-13,-5,-1
27661,-0.425,0.362,-0.123,-0.00,-0.11,-9.92,-13,-5,-1
27662,0.125,-0.127,-0.428,-0.00,-0.03,-9.84,-12,-4,6
27663,1.101,-0.310,-0.490,-0.00,-0.03,-9.84,-12,-4,6
27664,1.040,-0.920,-0.062,-0.00,-0.03,-9.84,-12,-2,0
27665,0.552,-1.592,-0.062,-0.00,-0.03,-9.77,-12,-2,0
27666,0.064,-1.836,-0.001,-0.00,0.05,-9.77,-7,-1,3
27667,-1.157,-1.958,0.304,-0.00,0.05,-9.77,-7,-1,3
27668,-1.767,-1.653,-0.062,-0.00,0.05,-9.84,-14,-6,4
27669,-1.096,-0.798,-0.184,-0.00,0.05,-9.84,-14,-6,4
27670,0.064,0.362,-0.245,-0.00,0.05,-9.84,-14,-2,4
27671,1.223,1.094,-0.612,-0.00,0.05,-9.84,-14,-2,4
27672,1.895,1.277,-0.673,-0.00,0.05,-9.84,-14,-4,0
27673,0.796,1.155,-0.184,-0.08,0.05,-9.84,-14,-4,0
27674,-0.363,0.667,0.060,-0.08,-0.03,-9.84,-12,-8,10
27675,-0.486,0.423,0.121,-0.08,0.05,-9.92,-12,-8,10
27676,-0.302,0.484,0.060,-0.08,0.05,-9.92,-8,-4,6
27677,-0.058,0.545,-0.062,-0.00,0.05,-9.92,-8,-4,6
27678,-0.180,0.423,-0.123,-0.08,0.05,-9.84,-8,-4,2
27679,-0.608,-0.005,-0.123,-0.08,-0.03,-9.84,-8,-4,2
27680,-1.462,-0.737,-0.184,-0.08,-0.03,-9.84,-5,-5,1
27681,-1.523,-1.103,0.121,-0.08,-0.03,-9.84,-5,-5,1
27682,-0.302,-1.225,0.487,-0.08,-0.03,-9.84,-3,-1,-1
27683,1.101,-1.164,0.548,-0.08,-0.11,-9.84,-3,-1,-1
27684,2.139,-0.737,0.304,-0.08,-0.03,-9.84,-11,1,5
27685,1.651,-0.249,0.182,-0.08,-0.03,-9.84,-11,1,5
27686,0.918,0.301,0.243,-0.08,-0.03,-9.84,-12,-8,6
27687,0.186,0.789,0.182,-0.16,-0.03,-9.84,-12,-8,6
27688,-0.547,1.704,-0.001,-0.08,0.05,-9.92,-12,-2,4
27689,-1.096,2.681,-0.062,-0.08,0.05,-9.92,-12,-2,4
27690,-1.035,2.986,0.121,-0.08,0.05,-9.84,-15,-7,5
27691,-0.547,2.803,0.304,-0.00,0.05,-9.84,-15,-7,5
27692,-0.302,1.643,0.365,-0.00,0.05,-9.84,-6,-6,4
27693,-0.547,0.545,0.548,-0.00,0.05,-9.84,-6,-6,4
27694,-0.608,-0.798,0.609,0.07,-0.03,-9.84,-10,-2,0
27695,-0.058,-1.714,0.731,0.07,-0.03,-9.84,-10,-2,0
27696,0.552,-2.019,0.670,0.07,-0.03,-9.84,-6,-6,0
27697,0.979,-1.836,0.487,0.07,-0.11,-9.84,-6,-6,0
27698,0.918,-1.592,0.792,-0.00,-0.11,-9.84,-15,-9,5
27699,0.430,-1.347,0.670,-0.00,-0.11,-9.84,-15,-9,5
27700,0.003,-0.798,0.670,-0.00,-0.11,-9.84,-15,-3,3
27701,-0.058,0.056,0.609,-0.00,-0.03,-9.84,-15,-3,3
27702,-0.119,0.911,0.304,-0.00,-0.03,-9.84,-12,0,6
27703,-0.180,1.338,-0.062,-0.08,-0.03,-9.84,-12,0,6
27704,0.064,1.643,-0.367,-0.00,0.05,-9.84,-4,0,2
27705,-0.180,1.888,-0.367,-0.00,0.05,-9.84,-4,0,2
27706,-0.669,1.155,-0.123,-0.00,0.05,-9.92,-10,-2,2
27707,-0.730,0.179,-0.062,-0.00,0.05,-9.84,-10,-2,2
27708,-0.058,-0.493,-0.001,-0.00,0.05,-9.84,-11,-7,9
27709,0.552,-0.920,-0.062,-0.00,-0.03,-9.84,-11,-7,9
27710,0.857,-1.408,-0.184,-0.00,0.05,-9.84,-15,-3,1
27711,0.735,-2.202,-0.123,-0.00,0.05,-9.84,-15,-3,1
27712,0.186,-2.507,-0.123,-0.00,0.05,-9.84,-13,-1,3
27713,-0.180,-2.446,-0.490,-0.08,0.05,-9.84,-13,-1,3
27714,-0.363,-1.714,-0.428,-0.08,0.05,-9.77,-15,-5,7
27715,-0.425,-0.615,-0.612,-0.08,0.12,-9.84,-15,-5,7
27716,-0.302,1.033,-0.734,-0.08,0.12,-9.84,-6,-2,8
27717,-0.180,2.071,-0.428,-0.08,0.12,-9.84,-6,-2,8
27718,-0.730,2.315,-0.245,-0.08,0.12,-9.84,-11,5,1
27719,-1.401,2.010,-0.306,-0.08,0.12,-9.84,-11,5,1
27720,-1.401,1.827,-0.245,-0.08,0.05,-9.84,-6,-2,-2
27721,-1.218,1.216,-0.245,-0.08,-0.03,-9.84,-6,-2,-2
27722,-0.486,0.056,0.121,-0.08,-0.03,-9.84,-14,-2,4
27723,1.590,-1.286,0.914,-0.08,-0.03,-9.84,-14,-2,4
27724,1.834,-1.103,0.365,-0.00,-0.03,-9.84,-10,-2,4
27725,2.139,0.117,0.853,-0.00,-0.03,-9.84,-10,-2,4
27726,2.627,-1.225,1.525,-0.00,-0.03,-9.84,-12,-6,4
27727,0.735,-2.629,0.487,-0.08,-0.03,-9.84,-12,-6,4
27728,-0.913,-0.981,-0.001,-0.08,0.05,-9.84,-6,-4,0
27729,-1.096,0.850,-0.367,-0.08,0.05,-9.84,-6,-4,0
27730,-0.913,1.155,0.121,-0.08,0.05,-9.84,-10,-4,0
27731,-0.730,1.643,0.121,-0.00,0.05,-9.84,-10,-4,0
27732,-0.974,2.742,0.304,-0.08,0.05,-9.84,-18,-6,4
27733,-1.889,3.169,-0.062,-0.16,0.05,-9.84,-18,-6,4
27734,-1.767,3.108,-0.551,-0.16,-0.03,-9.84,-12,-4,6
27735,-0.119,2.925,-0.428,-0.08,-0.03,-9.84,-12,-4,6
27736,1.101,2.681,-1.039,-0.00,-0.03,-9.92,-16,-6,2
27737,1.529,2.254,-1.100,-0.00,-0.03,-9.84,-16,-6,2
27738,0.979,1.216,-0.551,0.07,-0.03,-9.84,-9,-3,-1
27739,-0.180,-0.127,-0.306,0.07,-0.03,-9.84,-9,-3,-1
27740,-0.547,-1.103,-0.123,0.07,0.05,-9.84,-11,-3,9
27741,-0.302,-1.775,0.060,0.15,0.05,-9.84,-11,-3,9
27742,-0.425,-2.812,0.365,0.15,0.05,-9.84,-8,-8,-2
27743,-0.608,-3.606,0.365,0.07,-0.03,-9.84,-8,-8,-2
27744,-0.180,-4.094,0.487,-0.00,-0.03,-9.77,-13,-3,5
27745,0.613,-3.484,0.487,-0.00,-0.03,-9.77,-13,-3,5
27746,1.223,-3.117,0.792,-0.08,-0.03,-9.84,-16,-8,2
27747,1.346,-2.446,0.853,-0.08,-0.03,-9.84,-16,-8,2
27748,1.285,-1.592,0.670,-0.08,-0.03,-9.84,-14,-4,4
27749,1.285,-0.066,0.243,-0.08,-0.03,-9.84,-14,-4,4
27750,1.529,1.094,0.121,-0.08,0.05,-9.84,-12,-4,6
27751,1.223,1.643,-0.306,-0.08,0.05,-9.84,-12,-4,6
27752,0.491,1.888,-0.306,-0.08,0.12,-9.84,-7,-1,-3
27753,-0.363,2.132,-0.428,-0.00,0.12,-9.84,-7,-1,-3
27754,-1.279,1.643,-0.306,-0.00,0.12,-9.84,-10,-6,2
27755,-2.073,1.277,-0.306,-0.00,0.12,-9.77,-10,-6,2
27756,-2.134,0.850,-0.367,-0.00,0.12,-9.77,-5,-5,1
27757,-1.340,0.301,-0.184,-0.00,0.05,-9.77,-5,-5,1
27758,-0.425,-0.127,-0.184,-0.00,0.05,-9.77,-6,-2,2
27759,0.247,-0.493,-0.245,-0.00,0.05,-9.77,-6,-2,2
27760,0.735,-0.859,-0.306,-0.00,-0.03,-9.77,-9,-3,5
27761,0.735,-0.676,-0.367,-0.00,-0.03,-9.77,-9,-3,5
27762,0.552,-0.127,-0.123,-0.00,-0.03,-9.77,-6,-6,2
27763,0.613,0.484,-0.001,-0.00,-0.03,-9.84,-6,-6,2
27764,0.613,1.216,0.121,-0.08,-0.03,-9.84,-5,-3,3
27765,0.186,1.765,0.121,-0.08,-0.03,-9.84,-5,-3,3
27766,-0.486,2.315,-0.123,-0.08,0.05,-9.84,-11,-1,3
27767,-0.913,2.254,-0.428,-0.08,0.05,-9.84,-11,-1,3
27768,-1.096,2.071,-0.551,-0.00,0.05,-9.84,-15,1,3
27769,-0.730,1.765,-0.612,-0.00,0.05,-9.84,-15,1,3
27770,-0.730,1.216,-0.551,-0.00,0.05,-9.84,-9,-5,3
27771,-0.486,0.606,-0.245,-0.00,0.05,-9.84,-9,-5,3
27772,-0.302,-0.249,0.060,-0.00,0.05,-9.84,-8,-2,0
27773,0.186,-1.103,0.121,-0.00,0.05,-9.77,-8,-2,0
27774,0.491,-1.469,0.182,-0.00,-0.03,-9.84,-10,-2,0
27775,0.674,-1.531,0.182,-0.00,-0.03,-9.84,-10,-2,0
27776,0.613,-1.408,-0.001,-0.00,-0.03,-9.84,-9,-9,1
27777,0.430,-0.981,0.060,-0.00,-0.03,-9.84,-9,-9,1
27778,0.003,-0.493,0.121,-0.00,-0.03,-9.84,-5,-13,3
27779,-0.547,-0.188,0.182,-0.00,-0.03,-9.84,-5,-13,3
27780,-0.241,0.606,0.304,-0.00,0.05,-9.84,-14,-6,0
27781,0.186,1.033,0.304,-0.00,0.05,-9.84,-14,-6,0
27782,0.247,1.094,0.060,-0.00,0.05,-9.84,-11,-5,1
27783,-0.119,0.911,-0.001,-0.00,0.05,-9.77,-11,-5,1
27784,-0.608,0.667,0.121,-0.00,0.05,-9.77,-12,-4,-2
27785,-0.730,0.240,0.121,-0.00,0.05,-9.84,-12,-4,-2
27786,-0.058,0.117,0.182,-0.00,-0.03,-9.84,-14,-2,2
27787,0.491,-0.249,0.426,-0.00,-0.03,-9.77,-14,-2,2
27788,0.491,-0.676,0.548,-0.00,-0.03,-9.77,-10,-6,2
27789,0.308,-1.225,0.670,-0.08,-0.03,-9.77,-10,-6,2
27790,0.613,-0.859,0.426,-0.00,-0.03,-9.77,-9,-3,-1
27791,0.918,-0.310,0.182,-0.00,-0.03,-9.84,-9,-3,-1
27792,0.918,-0.005,-0.245,-0.00,0.05,-9.84,-13,-3,5
27793,0.186,0.362,-0.428,-0.00,0.05,-9.84,-13,-3,5
27794,-0.913,0.850,-0.673,-0.00,0.05,-9.84,-6,-6,6
27795,-1.157,1.033,-0.367,-0.00,0.05,-9.84,-6,-6,6
27796,-1.035,0.789,-0.184,-0.00,0.05,-9.84,-11,-7,3
27797,-0.486,0.545,0.060,-0.00,0.05,-9.84,-11,-7,3
27798,0.247,0.240,0.182,-0.00,0.05,-9.84,-12,-2,2
27799,0.430,-0.310,-0.001,-0.00,0.05,-9.84,-12,-2,2
27800,0.491,-1.103,-0.062,-0.00,-0.03,-9.84,-11,-3,1
27801,0.796,-1.653,-0.123,-0.00,0.05,-9.84,-11,-3,1
27802,0.796,-1.592,-0.245,-0.00,0.05,-9.84,-16,-8,-2
27803,0.247,-1.347,0.243,-0.00,-0.03,-9.84,-16,-8,-2
27804,-0.241,-1.103,0.609,-0.08,-0.03,-9.84,-10,-6,8
27805,-0.180,-0.127,0.731,-0.08,0.05,-9.84,-10,-6,8
27806,0.186,0.850,0.487,-0.00,0.05,-9.84,-9,-7,-1
27807,-0.241,1.582,0.182,-0.08,0.05,-9.84,-9,-7,-1
27808,-1.035,1.704,-0.001,-0.08,-0.03,-9.84,-12,-4,2
27809,-1.035,1.582,-0.062,-0.08,-0.03,-9.84,-12,-4,2
27810,-0.119,1.704,0.060,-0.08,-0.03,-9.84,-12,-2,-4
27811,0.186,1.643,0.121,-0.00,-0.03,-9.84,-12,-2,-4
27812,0.491,0.911,0.426,-0.00,-0.03,-9.84,-12,-8,2
27813,0.430,-0.005,0.121,-0.00,-0.03,-9.84,-12,-8,2
27814,0.674,-0.737,-0.062,-0.00,-0.03,-9.84,-15,-1,3
27815,0.308,-1.408,-0.367,-0.00,-0.03,-9.84,-15,-1,3
27816,-0.058,-1.897,-0.490,-0.00,-0.03,-9.84,-8,-12,0
27817,0.125,-2.080,-0.428,-0.00,-0.03,-9.84,-8,-12,0
27818,0.125,-1.836,-0.245,0.07,-0.03,-9.84,-14,0,6
27819,0.186,-1.286,-0.001,-0.00,-0.03,-9.84,-14,0,6
27820,-0.119,-0.676,-0.245,-0.00,-0.03,-9.84,-12,0,-2
27821,-0.547,0.056,-0.123,-0.00,0.05,-9.77,-12,0,-2
27822,-0.913,0.301,-0.245,-0.00,0.05,-9.77,-10,-4,-4
27823,-0.852,0.667,-0.490,-0.00,-0.03,-9.77,-10,-4,-4
27824,-0.425,0.972,-0.428,-0.00,-0.03,-9.84,-12,-4,4
27825,-0.180,1.094,-0.123,-0.00,-0.03,-9.84,-12,-4,4
27826,0.491,0.850,-0.062,-0.08,-0.03,-9.84,-14,-2,0
27827,1.162,0.545,-0.123,-0.00,-0.03,-9.77,-14,-2,0
27828,1.101,-0.188,-0.245,-0.08,-0.03,-9.77,-15,-5,5
27829,0.674,-1.164,-0.367,-0.00,-0.03,-9.77,-15,-5,5
27830,0.552,-1.531,-0.184,-0.00,-0.03,-9.77,-11,-5,-1
27831,0.308,-2.080,-0.062,-0.00,-0.03,-9.77,-11,-5,-1
27832,0.430,-2.080,-0.123,-0.00,-0.03,-9.77,-8,0,2
27833,0.552,-2.019,0.121,-0.00,0.05,-9.77,-8,0,2
27834,0.003,-1.531,0.060,-0.00,0.05,-9.77,-14,-6,2
27835,-0.730,-1.164,0.121,-0.00,0.05,-9.77,-14,-6,2
27836,-1.218,-0.005,0.121,-0.00,0.05,-9.77,-9,-1,5
27837,-1.096,0.972,0.304,-0.00,0.05,-9.84,-9,-1,5
27838,-0.486,1.704,0.182,-0.08,0.05,-9.84,-10,-6,4
27839,0.247,2.254,0.121,-0.08,0.05,-9.84,-10,-6,4
27840,0.308,2.376,-0.001,-0.08,0.05,-9.84,-12,-2,2
27841,-0.119,1.888,-0.306,-0.08,0.05,-9.84,-12,-2,2
27842,-0.180,1.582,-0.062,-0.08,0.05,-9.84,-10,-2,-4
27843,0.186,1.277,0.060,-0.00,0.05,-9.84,-10,-2,-4
27844,0.735,0.728,0.243,-0.00,0.05,-9.84,-13,1,3
27845,0.552,-0.005,0.121,-0.00,-0.03,-9.84,-13,1,3
27846,-0.486,-0.737,-0.184,-0.00,-0.03,-9.77,-13,-3,7
27847,-0.730,-1.469,-0.062,-0.00,-0.03,-9.84,-13,-3,7
27848,-0.608,-2.019,-0.001,0.07,-0.03,-9.84,-12,-2,0
27849,0.125,-1.958,-0.123,0.07,-0.03,-9.84,-12,-2,0
27850,0.674,-1.653,-0.123,-0.00,0.05,-9.84,-1,-3,-1
27851,0.186,-1.225,-0.001,-0.00,-0.03,-9.84,-1,-3,-1
27852,-0.119,-0.554,0.060,-0.00,0.05,-9.84,-10,-10,2
27853,0.125,0.301,0.121,-0.00,0.05,-9.84,-10,-10,2
27854,0.430,1.521,0.304,-0.00,0.05,-9.84,-5,3,3
27855,-0.363,2.010,0.121,-0.08,0.05,-9.84,-5,3,3
27856,-0.974,2.193,0.304,-0.08,0.05,-9.84,-8,-10,2
27857,-0.547,2.071,0.182,-0.08,0.05,-9.84,-8,-10,2
27858,0.369,1.521,0.060,-0.08,0.05,-9.84,-12,-2,2
27859,0.613,0.667,-0.306,-0.08,0.05,-9.84,-12,-2,2
27860,-0.058,-0.188,-0.490,-0.08,0.05,-9.84,-11,-3,7
27861,-0.180,-0.981,-0.184,-0.00,-0.03,-9.84,-11,-3,7
27862,0.552,-1.592,-0.184,-0.00,-0.03,-9.84,-11,-3,3
27863,0.552,-1.592,0.182,-0.00,-0.03,-9.84,-11,-3,3
27864,0.186,-1.653,0.182,0.07,-0.03,-9.84,-5,-1,3
27865,-0.119,-1.653,0.182,0.07,0.05,-9.84,-5,-1,3
27866,-0.302,-1.653,0.060,0.07,-0.03,-9.84,-10,-6,4
27867,-0.180,-0.981,-0.001,-0.00,-0.03,-9.77,-10,-6,4
27868,0.003,-0.676,-0.184,-0.00,-0.03,-9.84,-14,-2,0
27869,-0.058,0.117,-0.245,-0.00,0.05,-9.84,-14,-2,0
27870,-0.058,0.545,-0.001,-0.00,0.05,-9.84,-12,-4,2
27871,0.613,0.789,-0.184,-0.00,0.05,-9.84,-12,-4,2
27872,-0.058,1.155,-0.367,-0.00,0.05,-9.84,-3,-1,5
27873,-0.730,1.277,0.365,-0.00,0.05,-9.84,-3,-1,5
27874,-0.180,0.545,0.121,-0.00,0.05,-9.84,-7,1,3
27875,0.430,0.056,-0.001,-0.00,0.05,-9.84,-7,1,3
27876,0.125,-0.188,-0.062,-0.00,0.05,-9.84,-10,-4,0
27877,-0.363,-0.310,-0.184,-0.00,-0.03,-9.84,-10,-4,0
27878,-0.058,-0.676,0.060,-0.00,-0.03,-9.84,-12,0,8
27879,0.125,-0.554,0.121,-0.00,-0.03,-9.84,-12,0,8
27880,0.308,-0.371,0.243,-0.00,-0.03,-9.84,-10,0,2
27881,0.247,-0.188,0.060,-0.00,0.05,-9.84,-10,0,2
27882,0.003,-0.127,0.365,-0.00,0.05,-9.84,-10,-6,2
27883,0.308,-0.127,-0.123,-0.00,0.05,-9.84,-10,-6,2
27884,0.125,0.056,-0.062,-0.00,0.05,-9.84,-10,0,10
27885,-0.425,0.240,-0.184,-0.00,0.05,-9.84,-10,0,10
27886,-0.425,0.301,-0.184,-0.00,0.05,-9.84,-8,-8,4
27887,0.064,0.484,-0.062,-0.00,0.05,-9.84,-8,-8,4
27888,0.491,0.667,0.182,-0.00,0.05,-9.84,-9,1,1
27889,0.369,0.484,0.182,-0.00,0.05,-9.84,-9,1,1
27890,0.003,0.117,0.121,-0.00,0.05,-9.84,-11,-7,1
27891,-0.486,-0.005,0.304,-0.00,0.05,-9.84,-11,-7,1
27892,-0.058,-0.371,0.487,-0.00,0.05,-9.84,-3,-5,1
27893,0.186,-0.310,0.243,-0.00,0.05,-9.84,-3,-5,1
27894,-0.119,-0.066,0.365,-0.00,0.05,-9.84,-13,-3,5
27895,-0.119,0.179,0.487,-0.00,0.05,-9.84,-13,-3,5
27896,0.369,0.301,0.731,-0.00,0.05,-9.77,-7,-3,7
27897,0.125,0.728,0.609,-0.00,0.05,-9.77,-7,-3,7
27898,-0.180,1.460,0.365,-0.00,0.05,-9.84,-11,-3,3
27899,-0.608,1.765,0.243,-0.00,0.05,-9.84,-11,-3,3
27900,-0.974,1.460,0.304,-0.00,0.05,-9.84,-7,-7,1
27901,-0.852,1.399,0.060,-0.00,0.05,-9.77,-7,-7,1
27902,-0.669,1.155,-0.001,-0.00,0.05,-9.84,-12,-2,6
27903,-0.119,0.728,0.121,-0.00,0.05,-9.84,-12,-2,6
27904,0.613,-0.310,0.304,0.07,0.05,-9.84,0,-8,4
27905,0.857,-1.103,-0.123,0.07,-0.03,-9.84,0,-8,4
27906,0.796,-1.653,-0.001,0.07,-0.03,-9.84,-18,-4,2
27907,0.308,-2.385,-0.001,0.07,-0.11,-9.77,-18,-4,2
27908,0.491,-3.423,0.182,0.07,-0.03,-9.77,-12,-4,0
27909,0.796,-3.117,-0.001,-0.00,-0.03,-9.84,-12,-4,0
27910,0.735,-2.263,-0.123,-0.00,-0.03,-9.84,-9,1,9
27911,0.552,-1.531,-0.001,-0.00,-0.03,-9.77,-9,1,9
27912,-0.058,-0.981,0.304,-0.00,-0.03,-9.77,-11,-5,3
27913,-0.730,-0.127,0.670,-0.08,-0.03,-9.84,-11,-5,3
27914,-0.547,0.362,0.548,-0.08,-0.03,-9.84,-15,-1,3
27915,0.308,1.155,0.182,-0.08,0.05,-9.84,-15,-1,3
27916,1.101,1.765,-0.184,-0.08,0.05,-9.84,-11,-3,-3
27917,1.162,2.010,-0.184,-0.08,0.05,-9.84,-11,-3,-3
27918,0.430,1.155,-0.245,-0.00,-0.03,-9.77,-14,-2,-2
27919,0.064,0.362,-0.184,-0.00,0.05,-9.77,-14,-2,-2
27920,0.186,-0.310,-0.184,-0.00,0.05,-9.84,-15,-3,3
27921,0.003,-0.737,-0.123,-0.00,0.12,-9.77,-15,-3,3
27922,-0.119,-1.042,-0.245,0.07,0.12,-9.77,-12,-2,2
27923,-0.486,-1.103,-0.123,0.07,0.05,-9.77,-12,-2,2
27924,-0.547,-1.225,-0.001,0.07,0.05,-9.77,-15,-7,-1
27925,-0.547,-1.225,-0.123,-0.00,0.05,-9.77,-15,-7,-1
27926,-0.669,-0.737,-0.123,-0.00,0.05,-9.77,-8,2,8
27927,-0.913,-0.371,-0.123,-0.08,0.05,-9.84,-8,2,8
27928,-0.730,-0.127,0.304,-0.08,0.05,-9.84,-7,-5,7
27929,-0.608,0.545,0.426,-0.08,-0.03,-9.84,-7,-5,7
27930,0.369,1.399,0.365,-0.16,-0.03,-9.84,-6,-4,8
27931,1.162,2.498,0.243,-0.16,-0.03,-9.84,-6,-4,8
27932,1.040,3.047,0.121,-0.16,-0.03,-9.84,-4,-4,8
27933,0.491,2.864,-0.001,-0.16,-0.03,-9.84,-4,-4,8
27934,-0.363,2.315,0.121,-0.08,-0.03,-9.84,-2,-8,-2
27935,-0.486,2.132,0.304,-0.08,0.05,-9.84,-2,-8,-2
27936,-0.302,1.888,0.426,-0.00,0.05,-9.84,-17,-3,-1
27937,-0.058,1.155,0.426,-0.00,0.05,-9.84,-17,-3,-1
27938,-0.425,0.179,0.243,-0.00,0.05,-9.77,-14,-8,4
27939,-0.547,-0.493,-0.001,0.07,0.05,-9.77,-14,-8,4
27940,-0.669,-0.981,-0.001,0.07,0.05,-9.77,-14,-8,0
27941,-0.363,-1.164,-0.123,0.07,0.05,-9.77,-14,-8,0
27942,0.186,-1.286,0.060,0.07,0.05,-9.84,-13,-5,-5
27943,0.430,-1.103,0.182,0.07,-0.03,-9.84,-13,-5,-5
27944,0.186,-0.798,0.426,0.07,-0.03,-9.84,-9,-5,5
27945,0.186,-0.554,0.609,0.07,-0.03,-9.84,-9,-5,5
27946,0.491,0.117,0.487,0.07,-0.03,-9.84,-17,-5,1
27947,0.857,0.606,0.365,0.07,0.05,-9.84,-17,-5,1
27948,0.735,1.216,0.365,-0.00,0.05,-9.84,-9,-1,5
27949,0.247,1.338,3.112,-0.00,0.05,-9.84,-9,-1,5
27950,-0.669,2.376,0.487,-0.00,0.05,-9.84,-5,-1,3
27951,-0.058,2.010,1.464,-0.00,0.05,-9.77,-5,-1,3
27952,-0.730,2.376,0.792,-0.00,0.12,-9.77,-16,-2,-2
27953,-0.730,2.254,-0.856,-0.00,0.12,-9.84,-16,-2,-2
27954,-0.608,0.972,-0.428,-0.00,0.05,-9.84,-8,-4,2
27955,-2.134,0.972,-0.856,-0.00,0.05,-9.84,-8,-4,2
27956,-0.913,0.850,-0.184,0.07,0.05,-9.84,-8,-4,0
27957,1.346,0.240,0.975,0.07,0.05,-9.84,-8,-4,0
27958,0.125,-0.493,2.440,-0.00,-0.03,-9.84,-11,5,-1
27959,-0.791,-0.615,0.975,-0.00,-0.03,-9.84,-11,5,-1
27960,0.674,-0.981,0.975,-0.00,-0.03,-9.84,-14,-6,2
27961,0.613,-0.005,-0.062,-0.00,-0.03,-9.84,-14,-6,2
27962,1.468,0.301,-0.428,-0.00,-0.03,-9.84,-5,-5,1
27963,2.078,0.423,-0.001,-0.00,0.05,-9.84,-5,-5,1
27964,0.003,0.911,-0.367,-0.00,0.05,-9.84,-11,-5,3
27965,-1.096,0.789,-0.001,-0.08,0.05,-9.84,-11,-5,3
27966,-0.791,0.728,0.060,-0.00,0.12,-9.84,-10,-6,8
27967,-0.730,1.521,-0.245,-0.00,0.12,-9.84,-10,-6,8
27968,0.003,1.338,-0.367,-0.00,0.12,-9.84,-11,-1,1
27969,-0.363,1.033,-0.856,-0.00,0.12,-9.84,-11,-1,1
27970,-1.462,0.728,-0.673,-0.00,0.05,-9.84,-14,-10,4
27971,-1.401,0.179,-0.306,-0.00,0.05,-9.84,-14,-10,4
27972,-1.035,-0.127,0.060,-0.00,0.05,-9.84,-13,1,5
27973,-0.425,0.301,0.487,-0.00,-0.03,-9.84,-13,1,5
27974,0.247,-0.066,1.036,-0.00,-0.03,-9.84,-15,-5,1
27975,0.430,-0.249,1.036,-0.00,-0.11,-9.84,-15,-5,1
27976,0.613,0.240,1.097,-0.00,-0.11,-9.84,-15,1,3
27977,1.162,0.667,1.342,-0.08,-0.11,-9.84,-15,1,3
27978,0.918,1.033,1.281,-0.08,-0.03,-9.84,-6,-2,8
27979,0.674,1.704,1.036,-0.08,-0.03,-9.84,-6,-2,8
27980,0.247,2.254,0.731,-0.08,-0.03,-9.77,-12,2,4
27981,-0.547,2.803,0.243,-0.08,0.05,-9.84,-12,2,4
27982,-1.218,2.498,0.121,-0.00,0.05,-9.84,-8,-2,2
27983,-0.974,2.193,-0.001,-0.00,0.12,-9.77,-8,-2,2
27984,-0.852,1.765,-0.123,-0.00,0.12,-9.77,-8,-2,2
27985,-0.608,1.155,-0.001,-0.00,0.12,-9.77,-8,-2,2
27986,-0.486,0.056,0.121,0.07,0.05,-9.77,-11,-1,5
27987,-0.425,-0.920,0.182,0.07,0.05,-9.77,-11,-1,5
27988,0.247,-1.531,0.060,0.07,0.05,-9.77,-9,-5,5
27989,1.040,-1.653,-0.184,0.07,0.05,-9.77,-9,-5,5
27990,1.223,-1.714,-0.306,0.07,0.05,-9.77,-14,2,2
27991,0.979,-1.592,-0.184,0.07,0.05,-9.77,-14,2,2
27992,0.674,-1.225,-0.123,0.07,0.05,-9.77,-11,-1,-1
27993,0.491,-0.737,-0.062,-0.00,0.05,-9.77,-11,-1,-1
27994,-0.241,0.056,0.060,-0.00,0.05,-9.84,-13,-1,-1
27995,-0.730,0.972,0.121,-0.00,0.05,-9.84,-13,-1,-1
27996,-0.669,1.460,0.182,-0.00,0.12,-9.84,-13,-3,7
27997,-0.547,1.704,0.121,-0.00,0.12,-9.84,-13,-3,7
27998,-0.669,2.010,-0.062,-0.00,0.05,-9.84,-7,-5,-1
27999,-0.363,2.132,0.060,-0.00,0.05,-9.84,-7,-5,-1
28000,-0.180,2.010,0.243,-0.00,0.05,-9.84,-8,-4,4
28001,-0.180,1.643,0.609,-0.00,0.05,-9.84,-8,-4,4
28002,-0.363,1.949,0.731,-0.00,0.05,-9.84,-7,-5,-1
28003,-0.363,2.193,0.609,-0.00,0.05,-9.84,-7,-5,-1
28004,-0.119,1.949,0.487,-0.00,0.05,-9.84,-7,-3,-3
28005,-0.302,1.582,0.121,0.07,-0.03,-9.84,-7,-3,-3
28006,-0.547,1.338,-0.245,0.07,-0.03,-9.84,-13,-9,5
28007,-0.547,0.667,-0.123,0.07,-0.03,-9.84,-13,-9,5
28008,0.064,-0.249,-0.001,0.07,-0.03,-9.77,-8,-2,2
28009,0.552,-0.981,-0.062,0.07,-0.03,-9.77,-8,-2,2
28010,0.491,-1.469,-0.001,0.07,-0.03,-9.77,-12,-4,2
28011,0.491,-2.019,0.060,0.07,-0.03,-9.77,-12,-4,2
28012,0.613,-2.202,0.121,0.07,-0.03,-9.77,-16,-2,2
28013,0.735,-1.897,0.182,0.07,-0.03,-9.77,-16,-2,2
28014,0.491,-1.347,0.121,0.07,-0.03,-9.77,-7,-1,3
28015,0.186,-0.981,0.121,0.07,0.05,-9.77,-7,-1,3
28016,-0.425,-0.249,0.060,-0.00,0.05,-9.77,-7,-5,1
28017,-0.241,0.362,-0.123,-0.00,0.05,-9.84,-7,-5,1
28018,-0.180,0.911,-0.062,-0.00,0.05,-9.84,-11,-3,5
28019,0.125,1.338,-0.245,-0.00,0.05,-9.84,-11,-3,5
28020,0.125,1.888,-0.184,-0.00,0.05,-9.84,-6,-2,2
28021,-0.180,1.888,-0.062,-0.00,0.05,-9.84,-6,-2,2
28022,-0.669,2.010,0.060,-0.00,0.05,-9.84,-7,-7,5
28023,-0.791,2.010,0.304,-0.00,0.05,-9.84,-7,-7,5
28024,-0.852,2.010,0.243,-0.00,0.05,-9.84,-9,-7,7
28025,-0.913,2.071,0.121,-0.00,0.05,-9.84,-9,-7,7
28026,-0.913,2.010,0.243,0.07,0.05,-9.84,-5,-5,3
28027,-0.791,1.521,0.365,0.07,-0.03,-9.77,-5,-5,3
28028,-0.547,0.911,0.426,0.07,-0.03,-9.77,-12,0,4
28029,0.003,0.789,0.243,0.07,-0.03,-9.77,-12,0,4
28030,0.613,0.301,0.182,0.07,0.05,-9.77,-11,-3,3
28031,0.735,-0.554,0.182,0.07,-0.03,-9.77,-11,-3,3
28032,0.674,-1.408,0.060,0.07,-0.03,-9.77,-7,-1,11
28033,0.918,-1.653,0.121,0.07,-0.03,-9.77,-7,-1,11
28034,1.101,-1.775,-0.001,0.07,-0.03,-9.77,-4,-10,0
28035,0.796,-1.836,0.060,0.07,-0.03,-9.77,-4,-10,0
28036,0.369,-1.775,0.182,0.07,0.05,-9.77,-12,-2,8
28037,-0.363,-1.347,0.182,0.07,0.05,-9.77,-12,-2,8
28038,-0.974,-0.676,0.060,-0.00,0.05,-9.77,-10,2,4
28039,-0.730,0.179,0.182,-0.00,0.05,-9.77,-10,2,4
28040,-0.608,0.911,0.060,-0.00,0.05,-9.84,-7,-5,5
28041,-0.669,1.827,0.060,-0.00,0.05,-9.84,-7,-5,5
28042,-0.486,2.437,-0.001,-0.00,0.05,-9.84,-16,-6,0
28043,-0.119,2.498,0.121,-0.08,0.05,-9.84,-16,-6,0
28044,-0.058,2.498,-0.245,-0.00,0.05,-9.84,-9,-9,-1
28045,0.125,2.315,-0.184,-0.00,0.05,-9.92,-9,-9,-1
28046,0.369,1.765,0.060,-0.00,0.05,-9.84,-8,-4,8
28047,0.247,0.789,0.182,0.07,-0.03,-9.84,-8,-4,8
28048,0.125,-0.127,0.365,0.07,0.05,-9.84,-11,-7,1
28049,0.003,-0.615,0.426,0.07,0.05,-9.84,-11,-7,1
28050,-0.119,-1.164,0.548,0.07,0.05,-9.84,-13,-5,3
28051,-0.119,-1.469,0.548,0.07,-0.03,-9.84,-13,-5,3
28052,-0.302,-1.164,0.548,0.07,-0.03,-9.84,-10,-4,2
28053,-0.180,-0.615,0.426,-0.00,-0.03,-9.84,-10,-4,2
28054,0.003,-0.188,0.365,-0.00,-0.03,-9.84,-7,-7,5
28055,0.003,0.484,0.365,-0.00,0.05,-9.84,-7,-7,5
28056,-0.241,1.216,0.243,-0.00,-0.03,-9.84,-8,-10,-2
28057,-0.363,1.827,0.243,-0.00,-0.03,-9.84,-8,-10,-2
28058,-0.180,2.071,0.243,-0.00,-0.03,-9.84,-12,-4,2
28059,0.308,2.315,0.060,-0.00,0.05,-9.84,-12,-4,2
28060,0.857,2.254,-0.062,-0.00,0.05,-9.84,-12,-10,10
28061,0.735,1.765,-0.306,0.07,0.05,-9.84,-12,-10,10
28062,0.064,0.728,-0.123,-0.00,0.05,-9.77,-15,-7,1
28063,-0.547,-0.127,0.182,-0.00,0.05,-9.77,-15,-7,1
28064,-1.096,-0.127,0.426,-0.00,0.05,-9.84,-14,-8,6
28065,-0.852,0.301,0.975,-0.00,0.05,-9.84,-14,-8,6
28066,-0.486,1.094,1.220,-0.00,0.05,-9.84,-8,-4,4
28067,-0.608,1.949,1.220,-0.00,0.05,-9.84,-8,-4,4
28068,-1.767,1.827,2.135,-0.39,-0.03,-10.00,-11,-1,-1
28069,-4.026,7.991,-0.795,-0.39,-0.11,-10.07,-11,-1,-1
28070,-0.425,29.659,-6.898,-0.46,0.05,-10.23,-12,-4,2
28071,10.501,35.397,1.708,-0.62,0.12,-10.23,-12,-4,2
28072,10.806,35.092,2.929,-0.77,-0.11,-10.07,-9,-11,7
28073,-5.979,43.881,-2.626,-0.77,-0.26,-10.07,-9,-11,7
28074,-13.059,51.755,-1.100,-0.77,0.05,-10.23,-15,-7,5
28075,0.247,50.107,4.699,-0.92,0.28,-10.23,-15,-7,5
28076,7.999,49.619,0.243,-0.77,0.12,-10.07,-13,-9,1
28077,-1.645,50.839,-3.114,-0.31,0.05,-10.00,-13,-9,1
28078,-8.665,44.858,0.365,-0.31,0.12,-9.92,-10,-10,8
28079,-4.514,35.885,-0.184,-0.08,-0.03,-9.84,-10,-10,8
28080,1.468,33.688,1.708,0.23,-0.03,-9.84,-8,-8,6
28081,2.994,31.674,1.647,0.46,0.20,-9.92,-8,-8,6
28082,-0.302,25.082,-0.001,0.46,0.20,-9.84,-8,-10,6
28083,-4.026,20.138,1.586,0.69,-0.18,-9.69,-8,-10,6
28084,-2.256,19.344,0.548,0.84,-0.18,-9.69,-8,-6,10
28085,3.299,18.307,-0.428,0.84,0.05,-9.77,-8,-6,10
28086,2.322,16.536,-1.100,0.84,0.12,-9.77,-10,-18,8
28087,-2.195,13.179,-0.245,0.92,0.05,-9.69,-10,-18,8
28088,-2.500,9.700,-0.551,0.92,-0.03,-9.69,-17,-9,3
28089,-0.669,6.404,-0.062,0.92,0.05,-9.77,-17,-9,3
28090,0.369,1.888,0.243,0.99,0.05,-9.84,-11,-9,-1
28091,0.064,-2.873,-0.184,0.99,0.05,-9.77,-11,-9,-1
28092,-0.058,-6.230,0.243,0.92,0.05,-9.77,-12,-10,2
28093,1.346,-8.794,-0.062,0.92,-0.03,-9.77,-12,-10,2
28094,2.261,-10.442,-0.123,0.92,-0.03,-9.77,-15,-13,3
28095,0.796,-10.747,0.548,0.84,-0.03,-9.77,-15,-13,3
28096,-0.730,-9.038,0.304,0.69,-0.03,-9.84,-9,-9,5
28097,-0.363,-6.230,0.487,0.61,0.05,-9.84,-9,-9,5
28098,0.857,-2.507,0.060,0.46,0.05,-9.84,-5,-13,5
28099,0.552,1.277,-0.367,0.38,0.05,-9.84,-5,-13,5
28100,-0.791,4.451,-0.428,0.30,0.12,-9.84,-8,-16,8
28101,-1.340,6.893,-0.612,0.23,0.12,-9.84,-8,-16,8
28102,-0.791,8.296,-0.795,0.23,0.12,-9.84,-8,-16,2
28103,-0.363,8.541,-0.184,0.23,0.12,-9.84,-8,-16,2
28104,-1.035,7.503,-0.062,0.23,0.05,-9.84,-11,-11,5
28105,-1.523,5.733,0.365,0.30,0.05,-9.84,-11,-11,5
28106,-0.791,3.902,0.670,0.38,-0.03,-9.84,-11,-17,7
28107,0.491,1.949,0.731,0.46,-0.03,-9.84,-11,-17,7
28108,0.796,-0.249,1.097,0.53,-0.03,-9.77,-9,-11,5
28109,0.369,-2.019,0.853,0.61,-0.03,-9.77,-9,-11,5
28110,0.064,-2.568,0.365,0.61,-0.03,-9.77,-8,-18,6
28111,0.125,-2.629,0.609,0.61,-0.03,-9.84,-8,-18,6
28112,-0.119,-1.836,0.365,0.61,-0.03,-9.84,-9,-13,7
28113,-0.425,-0.554,0.548,0.61,-0.03,-9.84,-9,-13,7
28114,-0.425,1.643,0.365,0.61,0.05,-9.84,-12,-8,2
28115,-0.119,3.108,0.426,0.53,0.05,-9.84,-12,-8,2
28116,0.003,4.146,0.060,0.53,0.05,-9.84,-12,-12,4
28117,0.003,4.512,-0.123,0.53,0.05,-9.84,-12,-12,4
28118,0.064,4.390,-0.551,0.46,0.05,-9.84,-7,-9,3
28119,0.064,3.780,-0.490,0.46,-0.03,-9.84,-7,-9,3
28120,0.064,3.169,-0.245,0.46,-0.03,-9.84,-9,-15,3
28121,0.369,2.193,0.243,0.46,-0.03,-9.84,-9,-15,3
28122,-0.058,1.582,0.365,0.46,-0.03,-9.84,-11,-13,11
28123,-0.425,1.521,0.426,0.53,-0.03,-9.77,-11,-13,11
28124,-0.425,1.643,0.487,0.53,-0.03,-9.77,-11,-13,11
28125,-0.425,2.010,0.304,0.46,-0.03,-9.84,-11,-13,11
28126,-0.730,3.108,0.243,0.53,-0.03,-9.84,-5,-13,3
28127,-0.730,4.573,0.304,0.53,-0.03,-9.77,-5,-13,3
28128,-0.425,5.733,0.060,0.46,-0.03,-9.84,-14,-12,4
28129,0.186,6.465,0.243,0.53,-0.03,-9.84,-14,-12,4
28130,0.735,6.526,0.548,0.53,-0.03,-9.84,-12,-16,10
28131,0.918,6.099,0.609,0.53,-0.03,-9.84,-12,-16,10
28132,0.674,5.611,0.548,0.53,-0.03,-9.84,-7,-13,1
28133,0.735,4.939,0.487,0.53,-0.03,-9.84,-7,-13,1
28134,1.040,4.024,0.426,0.53,-0.03,-9.84,-13,-11,7
28135,0.796,3.291,0.182,0.61,0.05,-9.84,-13,-11,7
28136,-0.241,2.925,0.060,0.61,0.05,-9.84,-17,-11,3
28137,-1.218,2.803,-0.062,0.61,0.05,-9.84,-17,-11,3
28138,-1.584,2.742,0.243,0.61,-0.03,-9.84,-13,-21,5
28139,-1.157,2.986,0.243,0.61,0.05,-9.84,-13,-21,5
28140,-0.608,3.352,0.182,0.61,0.05,-9.84,-5,-15,5
28141,-0.547,3.780,0.060,0.61,0.05,-9.84,-5,-15,5
28142,-0.180,3.719,0.121,0.61,-0.03,-9.84,-10,-18,0
28143,0.247,3.597,-0.062,0.61,-0.03,-9.84,-10,-18,0
28144,0.674,3.841,0.243,0.61,-0.03,-9.84,-9,-7,7
28145,0.857,3.658,0.426,0.61,-0.03,-9.84,-9,-7,7
28146,0.674,3.291,0.548,0.61,-0.03,-9.84,-8,-10,2
28147,0.247,2.864,0.670,0.53,-0.03,-9.84,-8,-10,2
28148,-0.302,2.864,0.548,0.53,-0.03,-9.84,-13,-15,9
28149,-0.547,3.108,0.426,0.53,-0.03,-9.84,-13,-15,9
28150,-0.486,3.291,0.426,0.61,-0.03,-9.84,-10,-16,8
28151,-0.180,3.597,0.487,0.61,-0.03,-9.84,-10,-16,8
28152,-0.180,4.207,0.304,0.61,-0.03,-9.84,-18,-16,6
28153,-0.058,5.367,0.182,0.53,-0.03,-9.84,-18,-16,6
28154,0.003,6.343,-0.001,0.53,-0.03,-9.84,-11,-13,5
28155,-0.180,7.930,-0.306,0.53,-0.03,-9.84,-11,-13,5
28156,0.003,9.883,-0.428,0.53,0.05,-9.92,-8,-12,2
28157,0.308,12.447,-0.551,0.46,0.05,-9.92,-8,-12,2
28158,0.125,14.827,-0.612,0.46,0.05,-9.92,-12,-14,4
28159,-0.486,16.964,-0.551,0.46,0.05,-9.92,-12,-14,4
28160,-0.852,18.490,-0.184,0.46,0.05,-9.92,-11,-15,7
28161,-1.096,19.283,0.121,0.46,-0.03,-9.92,-11,-15,7
28162,-1.035,19.405,0.365,0.46,-0.03,-9.92,-10,-16,8
28163,-0.669,18.856,0.487,0.53,-0.03,-9.84,-10,-16,8
28164,0.064,17.879,0.182,0.53,-0.03,-9.84,-13,-17,5
28165,0.613,16.048,0.060,0.61,-0.03,-9.84,-13,-17,5
28166,0.796,13.790,0.121,0.69,-0.03,-9.84,-8,-20,10
28167,0.613,11.531,0.243,0.76,-0.03,-9.84,-8,-20,10
28168,0.064,9.700,0.365,0.76,-0.03,-9.84,-9,-19,9
28169,-0.302,8.296,0.548,0.84,-0.03,-9.84,-9,-19,9
28170,-0.608,7.259,0.426,0.84,0.05,-9.84,-5,-19,11
28171,-0.913,7.137,0.121,0.84,0.05,-9.84,-5,-19,11
28172,-1.035,7.808,-0.001,0.84,0.05,-9.84,-11,-9,11
28173,-0.913,8.785,-0.062,0.84,0.05,-9.92,-11,-9,11
28174,-0.913,9.944,-0.062,0.84,0.12,-9.92,-9,-23,5
28175,-0.974,10.921,-0.184,0.76,0.05,-9.92,-9,-23,5
28176,-1.096,11.531,-0.001,0.76,0.05,-9.92,-7,-15,7
28177,-0.730,11.470,0.060,0.76,0.05,-9.92,-7,-15,7
28178,0.064,10.860,0.243,0.76,-0.03,-9.92,-12,-14,12
28179,0.918,9.212,0.060,0.84,-0.03,-9.92,-12,-14,12
28180,1.468,6.893,-0.123,0.84,-0.03,-9.92,-8,-22,8
28181,1.040,3.902,-0.062,0.92,-0.03,-9.84,-8,-22,8
28182,0.308,0.789,-0.001,0.92,-0.11,-9.84,-15,-15,11
28183,0.125,-1.897,0.121,0.99,-0.03,-9.84,-15,-15,11
28184,0.369,-3.789,0.304,0.99,-0.03,-9.84,-14,-20,8
28185,0.369,-4.765,0.365,0.99,-0.03,-9.84,-14,-20,8
28186,-0.241,-4.643,0.243,0.99,0.05,-9.77,-8,-18,10
28187,-0.913,-3.911,0.060,0.92,0.05,-9.77,-8,-18,10
28188,-1.279,-2.629,-0.123,0.92,0.05,-9.77,-8,-18,6
28189,-1.340,-0.798,-0.062,0.84,0.05,-9.77,-8,-18,6
28190,-0.974,1.704,-0.184,0.76,0.05,-9.84,-11,-15,7
28191,-0.486,3.841,-0.123,0.76,0.05,-9.84,-11,-15,7
28192,0.369,5.306,-0.062,0.69,0.05,-9.84,-10,-18,8
28193,0.796,5.672,-0.123,0.69,-0.03,-9.84,-10,-18,8
28194,0.857,5.489,0.121,0.69,-0.03,-9.84,-8,-18,12
28195,0.735,4.878,0.182,0.76,-0.03,-9.84,-8,-18,12
28196,0.491,3.963,0.365,0.76,-0.03,-9.92,-12,-14,10
28197,0.125,2.803,0.548,0.76,-0.03,-9.92,-12,-14,10
28198,-0.302,2.010,0.487,0.76,-0.03,-9.92,-9,-15,13
28199,-0.547,1.827,0.426,0.84,-0.03,-9.84,-9,-15,13
28200,-0.547,1.827,0.304,0.84,-0.03,-9.92,-9,-19,7
28201,-0.363,2.193,0.426,0.84,0.05,-9.92,-9,-19,7
28202,-0.425,2.864,0.121,0.84,0.05,-9.92,-8,-24,6
28203,-0.791,3.963,0.060,0.84,-0.03,-9.92,-8,-24,6
28204,-0.669,5.184,-0.062,0.84,-0.03,-9.92,-6,-16,8
28205,-0.119,6.343,-0.001,0.76,0.05,-9.92,-6,-16,8
28206,0.613,7.381,-0.123,0.76,0.05,-9.92,-7,-19,9
28207,0.979,8.541,-0.367,0.76,0.05,-9.92,-7,-19,9
28208,0.796,9.151,-0.245,0.76,0.05,-9.92,-5,-23,13
28209,-0.058,9.212,-0.123,0.76,0.05,-9.92,-5,-23,13
28210,-0.547,9.151,0.060,0.76,0.05,-9.92,-11,-23,11
28211,-0.791,8.968,0.182,0.76,0.05,-9.92,-11,-23,11
28212,-0.669,8.907,0.243,0.76,0.05,-9.92,-10,-18,10
28213,-0.547,8.541,0.365,0.76,0.05,-9.92,-10,-18,10
28214,-0.730,8.113,0.548,0.84,0.05,-9.92,-8,-20,6
28215,-0.425,7.869,0.487,0.84,0.05,-9.92,-8,-20,6
28216,0.247,7.564,0.304,0.84,0.05,-9.92,-10,-18,10
28217,0.918,7.625,0.182,0.92,0.05,-9.92,-10,-18,10
28218,0.552,7.808,0.060,0.92,0.05,-9.92,-9,-17,7
28219,0.369,7.747,-0.001,0.92,0.05,-9.92,-9,-17,7
28220,0.186,7.686,-0.062,0.92,0.05,-9.84,-11,-17,9
28221,-0.363,7.686,0.060,0.92,0.05,-9.84,-11,-17,9
28222,-0.608,7.625,0.121,0.99,0.05,-9.92,-11,-21,13
28223,-0.669,7.015,0.304,0.99,0.05,-9.92,-11,-21,13
28224,-0.669,6.221,0.121,0.99,0.05,-9.92,-12,-20,8
28225,-0.486,5.611,0.060,0.99,-0.03,-9.84,-12,-20,8
28226,-0.425,4.817,0.121,0.99,-0.03,-9.92,-8,-18,10
28227,-0.730,3.902,0.304,0.99,-0.03,-9.92,-8,-18,10
28228,-0.302,3.291,0.304,0.99,-0.03,-9.84,-7,-17,11
28229,0.308,3.169,0.243,0.99,-0.03,-9.92,-7,-17,11
28230,0.613,2.925,0.121,0.99,-0.03,-9.92,-12,-24,10
28231,0.369,2.803,0.182,1.07,-0.03,-9.84,-12,-24,10
28232,0.308,2.559,0.182,1.07,-0.03,-9.84,-5,-15,7
28233,0.125,2.376,0.121,0.99,0.05,-9.92,-5,-15,7
28234,-0.119,2.498,-0.001,0.99,0.05,-9.92,-7,-15,3
28235,-0.302,2.498,0.243,0.99,0.05,-9.92,-7,-15,3
28236,-0.363,2.193,0.243,0.99,0.05,-9.84,-13,-23,13
28237,-0.363,2.132,0.243,0.99,0.05,-9.84,-13,-23,13
28238,-0.180,2.498,0.182,0.99,-0.03,-9.84,-13,-17,5
28239,-0.180,2.559,0.243,0.99,-0.03,-9.84,-13,-17,5
28240,-0.180,2.803,0.121,0.92,-0.03,-9.84,-9,-23,9
28241,-0.302,3.597,0.182,0.92,-0.03,-9.84,-9,-23,9
28242,-0.241,4.573,0.365,0.92,-0.03,-9.84,-11,-19,9
28243,-0.486,5.550,0.243,0.92,-0.03,-9.84,-11,-19,9
28244,-0.302,7.137,0.365,0.92,-0.03,-9.84,-9,-23,5
28245,0.125,8.846,0.182,0.92,0.05,-9.92,-9,-23,5
28246,0.369,10.860,0.182,0.84,-0.03,-9.92,-11,-21,9
28247,0.064,12.813,-0.184,0.84,0.05,-9.92,-11,-21,9
28248,0.003,14.522,-0.245,0.84,0.05,-9.92,-17,-19,11
28249,0.003,16.048,-0.306,0.84,0.05,-9.92,-17,-19,11
28250,-0.058,17.147,-0.245,0.84,0.05,-10.00,-12,-20,14
28251,-0.486,17.879,-0.062,0.84,0.05,-9.92,-12,-20,14
28252,-0.363,18.307,-0.184,0.84,0.05,-9.92,-7,-19,9
28253,-0.363,17.940,-0.245,0.92,0.05,-9.92,-7,-19,9
28254,-0.486,17.513,-0.184,0.99,0.05,-9.92,-10,-26,10
28255,-0.791,16.475,-0.001,1.07,0.05,-9.84,-10,-26,10
28256,-0.425,15.255,-0.001,1.07,0.05,-9.84,-11,-27,13
28257,-0.363,14.278,-0.001,1.15,0.05,-9.84,-11,-27,13
28258,-0.547,13.240,0.121,1.22,-0.03,-9.84,-10,-26,14
28259,-0.547,12.142,0.243,1.22,-0.03,-9.77,-10,-26,14
28260,-0.669,11.165,0.426,1.30,-0.03,-9.84,-9,-25,11
28261,-0.425,10.494,0.548,1.30,-0.03,-9.84,-9,-25,11
28262,-0.119,9.944,0.426,1.30,-0.03,-9.84,-9,-19,13
28263,0.125,9.517,0.365,1.38,-0.03,-9.84,-9,-19,13
28264,0.064,8.785,0.365,1.38,-0.03,-9.84,-12,-22,12
28265,-0.119,7.991,0.182,1.38,-0.03,-9.84,-12,-22,12
28266,-0.302,6.954,0.060,1.38,-0.03,-9.84,-8,-22,8
28267,0.186,6.282,-0.123,1.38,-0.03,-9.84,-8,-22,8
28268,0.369,5.428,-0.062,1.38,0.05,-9.84,-8,-26,8
28269,-0.119,4.390,-0.001,1.38,0.05,-9.84,-8,-26,8
28270,-0.669,3.413,-0.184,1.38,0.05,-9.84,-9,-29,9
28271,-0.791,2.498,-0.062,1.38,0.05,-9.84,-9,-29,9
28272,-0.547,2.132,-0.001,1.38,0.05,-9.84,-6,-24,12
28273,-0.302,1.460,-0.062,1.38,0.05,-9.84,-6,-24,12
28274,-0.058,0.911,-0.245,1.38,0.05,-9.84,-7,-23,9
28275,-0.058,0.606,-0.001,1.38,0.05,-9.84,-7,-23,9
28276,-0.058,0.179,-0.001,1.30,-0.03,-9.84,-11,-25,7
28277,0.064,0.301,-0.123,1.30,-0.03,-9.84,-11,-25,7
28278,0.186,0.911,0.060,1.30,0.05,-9.84,-12,-22,14
28279,0.369,1.338,0.060,1.30,0.05,-9.84,-12,-22,14
28280,-0.058,1.582,0.121,1.22,0.05,-9.84,-10,-24,12
28281,-0.363,2.254,0.060,1.22,0.05,-9.84,-10,-24,12
28282,-0.730,2.925,0.243,1.22,0.05,-9.84,-6,-18,8
28283,-0.791,3.352,0.487,1.22,0.05,-9.84,-6,-18,8
28284,-0.791,3.658,0.365,1.22,0.05,-9.84,-6,-28,14
28285,-0.425,4.268,0.548,1.22,0.05,-9.84,-6,-28,14
28286,0.186,4.695,0.487,1.22,0.05,-9.84,-10,-28,10
28287,0.430,4.939,0.304,1.15,-0.03,-9.84,-10,-28,10
28288,0.430,5.306,0.060,1.22,-0.03,-9.84,-5,-21,13
28289,0.613,6.160,-0.062,1.22,0.05,-9.84,-5,-21,13
28290,0.430,6.954,0.121,1.15,-0.03,-9.92,-12,-24,12
28291,-0.119,8.235,-0.123,1.15,-0.03,-9.92,-12,-24,12
28292,-0.486,10.311,-0.306,1.15,-0.03,-9.92,-12,-30,12
28293,-0.180,12.447,-0.245,1.15,0.05,-9.92,-12,-30,12
28294,-0.363,13.729,-0.184,1.15,0.05,-9.92,-12,-20,12
28295,-0.852,14.766,-0.184,1.15,0.05,-9.92,-12,-20,12
28296,-1.157,15.682,-0.123,1.15,0.05,-9.92,-9,-27,13
28297,-1.279,15.743,0.060,1.15,-0.03,-9.92,-9,-27,13
28298,-0.791,15.316,0.243,1.22,-0.03,-9.92,-13,-31,15
28299,0.247,14.400,0.304,1.30,-0.03,-9.92,-13,-31,15
28300,0.796,13.301,0.426,1.30,-0.03,-9.84,-8,-30,12
28301,0.735,11.898,0.365,1.38,-0.03,-9.84,-8,-30,12
28302,0.613,10.128,0.243,1.38,-0.03,-9.77,-7,-29,15
28303,0.491,8.663,0.243,1.45,-0.03,-9.77,-7,-29,15
28304,-0.241,7.259,0.426,1.53,-0.03,-9.77,-9,-25,11
28305,-0.669,6.160,0.487,1.53,-0.03,-9.77,-9,-25,11
28306,-0.730,5.306,0.670,1.61,-0.03,-9.77,-8,-22,14
28307,-0.425,5.000,0.548,1.61,-0.03,-9.77,-8,-22,14
28308,-0.486,4.939,0.243,1.61,0.05,-9.77,-10,-24,14
28309,-0.425,4.939,0.182,1.61,0.05,-9.77,-10,-24,14
28310,-0.608,5.184,-0.062,1.61,0.05,-9.77,-6,-32,10
28311,-0.547,5.733,-0.062,1.53,0.05,-9.84,-6,-32,10
28312,-0.425,6.648,0.121,1.53,0.05,-9.84,-3,-31,11
28313,0.003,7.625,0.121,1.45,-0.03,-9.84,-3,-31,11
28314,0.247,8.663,0.121,1.45,0.05,-9.84,-8,-26,18
28315,0.369,9.517,0.060,1.45,0.05,-9.84,-8,-26,18
28316,0.064,9.883,0.121,1.38,0.05,-9.84,-11,-27,13
28317,-0.302,9.822,-0.062,1.38,-0.03,-9.84,-11,-27,13
28318,-0.669,9.883,-0.001,1.38,-0.03,-9.84,-8,-30,14
28319,-0.363,9.456,0.060,1.45,-0.03,-9.84,-8,-30,14
28320,0.125,9.029,-0.001,1.45,-0.03,-9.84,-4,-30,18
28321,0.186,8.724,0.060,1.45,-0.03,-9.84,-4,-30,18
28322,-0.363,8.419,0.060,1.45,-0.03,-9.84,-9,-25,11
28323,-0.547,8.357,0.121,1.45,-0.03,-9.84,-9,-25,11
28324,-0.302,9.151,0.121,1.45,-0.03,-9.84,-8,-32,14
28325,-0.363,9.883,0.243,1.45,-0.03,-9.84,-8,-32,14
28326,-0.363,11.104,0.060,1.45,-0.03,-9.84,-7,-29,9
28327,-0.547,12.447,0.243,1.45,-0.03,-9.84,-7,-29,9
28328,-0.730,13.301,0.243,1.45,-0.03,-9.84,-5,-29,13
28329,-0.608,14.278,0.182,1.45,-0.03,-9.84,-5,-29,13
28330,-0.180,15.377,0.304,1.45,-0.03,-9.92,-3,-35,11
28331,0.125,15.987,0.304,1.45,-0.03,-9.92,-3,-35,11
28332,0.186,16.109,0.121,1.45,-0.03,-9.84,-10,-28,14
28333,-0.119,16.048,0.243,1.53,-0.03,-9.84,-10,-28,14
28334,-0.363,15.926,0.365,1.53,-0.03,-9.84,-7,-27,15
28335,-0.425,15.194,0.365,1.61,-0.03,-9.84,-7,-27,15
28336,-0.180,14.339,0.548,1.61,-0.03,-9.84,-7,-29,19
28337,-0.302,13.546,0.548,1.68,-0.03,-9.77,-7,-29,19
28338,-0.486,12.508,0.548,1.68,-0.03,-9.77,-12,-28,14
28339,-0.302,11.043,0.548,1.76,0.05,-9.77,-12,-28,14
28340,-0.058,10.005,0.365,1.76,0.05,-9.77,-8,-36,14
28341,-0.058,9.273,0.304,1.84,0.05,-9.77,-8,-36,14
28342,-0.241,8.724,0.121,1.84,0.05,-9.77,-8,-34,14
28343,-0.852,8.663,0.243,1.84,0.05,-9.77,-8,-34,14
28344,-0.974,8.907,0.426,1.84,0.05,-9.77,-10,-32,18
28345,-0.486,9.456,0.609,1.84,0.05,-9.77,-10,-32,18
28346,-0.119,10.250,0.426,1.84,0.05,-9.77,-13,-23,17
28347,0.003,10.921,0.365,1.84,0.05,-9.77,-13,-23,17
28348,-0.119,11.043,0.304,1.76,0.05,-9.77,-5,-33,13
28349,-0.302,10.677,0.182,1.76,0.05,-9.77,-5,-33,13
28350,-0.180,10.616,-0.062,1.84,0.05,-9.77,-7,-33,17
28351,0.003,10.250,0.060,1.84,0.05,-9.77,-7,-33,17
28352,0.125,10.067,0.060,1.84,0.05,-9.77,-5,-27,19
28353,-0.119,9.822,0.060,1.84,0.05,-9.77,-5,-27,19
28354,-0.363,9.700,0.243,1.84,0.05,-9.77,-9,-31,15
28355,-0.669,9.944,0.243,1.84,0.05,-9.77,-9,-31,15
28356,-0.730,10.616,0.060,1.84,0.05,-9.77,-11,-31,15
28357,-0.730,11.226,0.243,1.84,0.05,-9.77,-11,-31,15
28358,-0.730,11.592,0.304,1.84,0.05,-9.77,-4,-36,14
28359,-0.791,11.837,0.182,1.84,0.05,-9.77,-4,-36,14
28360,-0.608,12.325,0.182,1.91,0.05,-9.77,-11,-33,13
28361,0.003,12.264,0.243,1.91,0.05,-9.77,-11,-33,13
28362,0.552,11.653,0.365,1.91,0.05,-9.77,-13,-33,15
28363,0.491,10.677,0.426,1.99,0.05,-9.77,-13,-33,15
28364,0.308,9.700,0.243,1.99,0.05,-9.77,-8,-34,16
28365,0.308,8.419,0.121,2.07,0.05,-9.69,-8,-34,16
28366,0.003,6.954,0.182,2.07,0.05,-9.69,-9,-37,11
28367,-0.241,5.672,0.182,2.14,0.05,-9.69,-9,-37,11
28368,-0.363,4.756,0.243,2.14,0.05,-9.69,-10,-34,16
28369,-0.608,3.963,0.304,2.14,0.05,-9.69,-10,-34,16
28370,-0.608,3.841,0.121,2.14,0.05,-9.69,-14,-34,14
28371,-0.486,3.963,0.365,2.07,0.05,-9.77,-14,-34,14
28372,-0.241,4.207,0.365,2.07,0.05,-9.77,-6,-34,16
28373,-0.486,5.184,0.426,1.99,0.05,-9.77,-6,-34,16
28374,-0.241,6.587,0.304,1.91,-0.03,-9.77,-13,-37,21
28375,0.003,8.235,0.060,1.91,-0.03,-9.77,-13,-37,21
28376,-0.119,9.761,-0.123,1.84,0.05,-9.84,-8,-34,14
28377,0.064,11.348,-0.123,1.84,0.05,-9.84,-8,-34,14
28378,-0.058,12.691,-0.184,1.84,-0.03,-9.77,-6,-30,14
28379,-0.547,13.546,-0.062,1.84,-0.03,-9.77,-6,-30,14
28380,-0.791,13.729,-0.062,1.84,-0.03,-9.77,-10,-38,16
28381,-0.669,13.485,0.121,1.91,-0.03,-9.77,-10,-38,16
28382,-0.547,12.752,0.426,1.99,-0.03,-9.77,-14,-36,18
28383,-0.119,11.837,0.548,1.99,-0.03,-9.77,-14,-36,18
28384,0.491,10.494,0.487,2.07,-0.03,-9.69,-7,-39,15
28385,0.491,9.395,0.365,2.14,-0.03,-9.69,-7,-39,15
28386,0.369,8.602,0.304,2.14,-0.03,-9.69,-8,-32,20
28387,0.308,8.235,0.243,2.14,-0.03,-9.69,-8,-32,20
28388,-0.241,8.357,0.365,2.14,-0.03,-9.69,-12,-30,20
28389,-0.852,9.151,0.365,2.14,0.05,-9.69,-12,-30,20
28390,-0.730,10.433,0.182,2.14,0.05,-9.69,-12,-34,22
28391,-0.547,12.142,0.060,2.07,0.05,-9.69,-12,-34,22
28392,-0.913,14.461,-0.062,2.07,0.05,-9.77,-7,-33,17
28393,-1.035,15.987,0.121,2.07,0.05,-9.77,-7,-33,17
28394,-0.913,16.964,0.182,2.07,0.05,-9.77,-11,-39,17
28395,-0.486,17.330,0.243,1.99,0.05,-9.77,-11,-39,17
28396,-0.180,17.208,0.243,2.07,0.05,-9.77,-8,-36,16
28397,0.125,16.659,0.121,2.07,0.05,-9.77,-8,-36,16
28398,0.186,15.682,0.365,2.14,-0.03,-9.77,-13,-37,15
28399,0.247,14.095,0.487,2.22,-0.03,-9.69,-13,-37,15
28400,0.369,12.874,0.609,2.22,-0.03,-9.69,-10,-36,20
28401,0.186,11.959,0.670,2.22,-0.03,-9.69,-10,-36,20
28402,-0.058,11.531,0.548,2.30,-0.03,-9.69,-7,-39,21
28403,-0.363,11.470,0.487,2.30,-0.03,-9.69,-7,-39,21
28404,-0.852,11.898,0.487,2.30,-0.03,-9.69,-11,-41,19
28405,-0.913,12.447,0.487,2.30,0.05,-9.69,-11,-41,19
28406,-1.096,13.485,0.365,2.30,0.05,-9.69,-8,-38,26
28407,-1.096,14.705,0.243,2.22,0.05,-9.69,-8,-38,26
28408,-0.791,16.048,0.121,2.22,0.05,-9.69,-8,-38,16
28409,-0.363,16.964,-0.062,2.22,0.05,-9.77,-8,-38,16
28410,0.064,17.818,-0.062,2.30,0.05,-9.77,-9,-39,21
28411,0.186,17.818,-0.245,2.22,0.05,-9.69,-9,-39,21
28412,-0.425,17.635,-0.306,2.30,0.05,-9.69,-8,-38,16
28413,-0.547,16.964,-0.123,2.30,0.05,-9.69,-8,-38,16
28414,-0.425,15.743,0.304,2.37,-0.03,-9.69,-11,-43,19
28415,0.003,14.217,0.426,2.45,-0.03,-9.61,-11,-43,19
28416,-0.058,12.813,0.609,2.45,-0.03,-9.61,-10,-36,20
28417,-0.241,10.677,0.487,2.53,-0.03,-9.61,-10,-36,20
28418,-0.119,9.395,0.487,2.53,-0.03,-9.61,-15,-37,25
28419,-0.241,8.357,0.426,2.60,-0.03,-9.61,-15,-37,25
28420,-0.363,7.808,0.609,2.60,-0.03,-9.61,-4,-32,22
28421,-0.486,7.381,0.365,2.60,0.05,-9.61,-4,-32,22
28422,-0.608,7.747,0.426,2.60,0.05,-9.61,-12,-36,22
28423,-0.730,8.541,0.548,2.53,0.05,-9.61,-12,-36,22
28424,-0.363,9.334,0.365,2.53,0.05,-9.61,-7,-41,23
28425,-0.119,10.372,0.304,2.53,0.05,-9.61,-7,-41,23
28426,-0.180,11.470,0.182,2.45,0.05,-9.69,-7,-37,23
28427,-0.852,12.386,0.304,2.45,0.05,-9.69,-7,-37,23
28428,-0.974,12.874,0.426,2.37,0.05,-9.69,-12,-38,20
28429,-0.608,13.729,0.304,2.45,-0.03,-9.69,-12,-38,20
28430,0.369,14.461,0.426,2.45,-0.03,-9.69,-11,-39,21
28431,0.735,14.400,0.487,2.45,-0.03,-9.69,-11,-39,21
28432,0.064,13.485,0.487,2.53,-0.03,-9.61,-3,-37,21
28433,-0.363,12.691,0.304,2.53,-0.03,-9.61,-3,-37,21
28434,-0.547,11.959,0.365,2.60,-0.03,-9.61,-10,-40,18
28435,-0.119,11.409,0.243,2.60,-0.03,-9.61,-10,-40,18
28436,0.125,10.799,0.304,2.68,0.05,-9.61,-11,-41,21
28437,-0.058,10.250,0.121,2.68,0.05,-9.61,-11,-41,21
28438,-0.486,10.005,-0.123,2.68,0.05,-9.61,-10,-42,20
28439,-0.791,10.494,-0.245,2.68,0.05,-9.61,-10,-42,20
28440,-0.913,10.494,-0.123,2.68,0.05,-9.61,-6,-34,26
28441,-0.669,10.799,0.121,2.60,0.05,-9.61,-6,-34,26
28442,-0.547,11.776,0.121,2.60,0.05,-9.61,-16,-40,18
28443,-0.425,12.691,0.121,2.60,0.05,-9.61,-16,-40,18
28444,-0.547,13.424,0.060,2.60,-0.03,-9.61,-8,-38,22
28445,-0.180,14.095,0.121,2.60,-0.03,-9.61,-8,-38,22
28446,0.125,14.583,0.060,2.60,-0.03,-9.61,-11,-41,23
28447,0.003,15.316,0.060,2.60,-0.03,-9.61,-11,-41,23
28448,-0.363,15.743,-0.001,2.60,-0.03,-9.61,-10,-46,22
28449,-0.425,16.109,0.304,2.60,-0.03,-9.61,-10,-46,22
28450,-0.058,16.048,0.304,2.68,-0.03,-9.61,-8,-42,16
28451,-0.180,16.292,0.304,2.68,-0.03,-9.61,-8,-42,16
28452,-0.547,16.414,0.304,2.68,-0.03,-9.61,-11,-41,21
28453,-0.669,16.353,0.426,2.68,0.05,-9.61,-11,-41,21
28454,-0.486,15.926,0.304,2.68,0.05,-9.54,-10,-42,20
28455,-0.302,15.621,0.182,2.76,0.05,-9.54,-10,-42,20
28456,-0.425,15.255,0.121,2.76,0.05,-9.54,-15,-43,25
28457,-0.669,14.583,0.121,2.83,0.05,-9.54,-15,-43,25
28458,-0.425,13.851,0.182,2.83,0.05,-9.54,-9,-45,25
28459,-0.241,13.057,0.365,2.83,0.05,-9.54,-9,-45,25
28460,-0.119,12.142,0.365,2.91,0.05,-9.54,-9,-43,23
28461,-0.058,11.043,0.243,2.91,0.05,-9.54,-9,-43,23
28462,0.125,10.189,0.182,2.99,0.05,-9.46,-3,-43,23
28463,-0.241,9.334,0.121,2.99,-0.03,-9.46,-3,-43,23
28464,-0.669,8.419,0.365,2.99,-0.03,-9.46,-12,-46,24
28465,-0.547,7.991,0.426,2.99,-0.03,-9.46,-12,-46,24
28466,-0.241,7.625,0.609,2.99,0.05,-9.54,-12,-44,22
28467,-0.180,7.869,0.731,2.99,0.05,-9.54,-12,-44,22
28468,-0.669,8.052,0.731,2.99,0.05,-9.54,-7,-41,17
28469,-0.608,8.541,0.792,2.91,-0.03,-9.54,-7,-41,17
28470,-0.608,9.456,0.670,2.91,-0.03,-9.54,-13,-43,23
28471,-0.241,10.494,0.609,2.91,-0.03,-9.61,-13,-43,23
28472,0.247,11.653,0.365,2.83,-0.03,-9.61,-10,-48,26
28473,0.552,12.630,0.182,2.83,-0.03,-9.61,-10,-48,26
28474,0.308,13.118,-0.001,2.83,-0.03,-9.61,-7,-45,25
28475,-0.180,13.240,-0.123,2.91,-0.03,-9.54,-7,-45,25
28476,-0.302,12.996,-0.245,2.91,-0.03,-9.54,-11,-45,23
28477,-0.302,12.447,-0.184,2.99,0.05,-9.54,-11,-45,23
28478,-0.363,11.104,-0.062,2.99,0.05,-9.46,-7,-45,27
28479,-0.730,9.578,-0.123,3.06,-0.03,-9.46,-7,-45,27
28480,-0.730,7.808,-0.123,3.14,-0.03,-9.38,-10,-44,24
28481,-0.547,6.160,-0.001,3.14,-0.03,-9.38,-10,-44,24
28482,-0.241,4.329,0.243,3.22,-0.03,-9.38,-5,-45,27
28483,-0.425,2.742,0.426,3.22,-0.03,-9.38,-5,-45,27
28484,-0.425,1.949,0.548,3.22,-0.03,-9.38,-9,-43,25
28485,-0.119,1.704,0.914,3.22,-0.03,-9.38,-9,-43,25
28486,0.308,1.765,0.853,3.22,-0.03,-9.38,-9,-43,23
28487,0.186,2.437,0.731,3.22,-0.03,-9.38,-9,-43,23
28488,0.064,3.475,0.487,3.14,-0.03,-9.46,-3,-43,23
28489,-0.058,4.878,0.365,3.06,0.05,-9.46,-3,-43,23
28490,-0.241,6.465,0.060,2.99,0.05,-9.46,-9,-41,27
28491,-0.363,8.357,-0.062,2.99,0.05,-9.54,-9,-41,27
28492,-0.180,10.311,-0.245,2.91,0.05,-9.54,-7,-49,25
28493,0.125,11.592,-0.245,2.91,0.05,-9.54,-7,-49,25
28494,-0.363,12.325,-0.062,2.91,0.05,-9.54,-7,-43,29
28495,-0.730,12.447,-0.001,2.91,0.05,-9.54,-7,-43,29
28496,-0.669,12.264,0.182,2.99,0.05,-9.54,-11,-51,27
28497,-0.119,12.020,0.304,2.99,0.05,-9.46,-11,-51,27
28498,-0.058,11.470,0.426,3.06,-0.03,-9.46,-8,-46,26
28499,-0.302,10.921,0.426,3.06,-0.03,-9.46,-8,-46,26
28500,-0.241,10.372,0.304,3.14,-0.03,-9.38,-12,-40,30
28501,-0.058,10.067,0.548,3.14,-0.03,-9.38,-12,-40,30
28502,0.003,9.944,0.731,3.14,-0.03,-9.38,-13,-51,29
28503,-0.425,9.883,0.914,3.14,-0.03,-9.46,-13,-51,29
28504,-0.608,10.250,1.036,3.14,-0.03,-9.46,-12,-48,26
28505,-0.363,10.677,1.036,3.14,-0.03,-9.46,-12,-48,26
28506,-0.119,11.715,0.670,3.14,-0.03,-9.46,-10,-50,22
28507,0.003,12.508,0.365,3.14,0.05,-9.46,-10,-50,22
28508,0.125,13.301,0.182,3.22,0.05,-9.46,-6,-44,26
28509,-0.058,14.095,0.182,3.14,0.05,-9.46,-6,-44,26
28510,-0.241,14.461,-0.001,3.14,0.05,-9.46,-8,-52,28
28511,-0.486,15.255,-0.184,3.14,0.05,-9.46,-8,-52,28
28512,-0.669,15.743,-0.062,3.14,0.05,-9.46,-10,-46,26
28513,-0.608,16.048,-0.062,3.22,0.05,-9.46,-10,-46,26
28514,-0.486,16.048,-0.001,3.22,0.05,-9.46,-13,-49,25
28515,-0.913,15.865,0.304,3.22,0.05,-9.46,-13,-49,25
28516,-0.913,15.316,0.365,3.29,-0.03,-9.38,-6,-52,28
28517,-0.608,14.766,0.487,3.29,-0.03,-9.38,-6,-52,28
28518,-0.241,13.668,0.548,3.37,-0.03,-9.38,-12,-50,30
28519,-0.119,12.752,0.548,3.37,-0.03,-9.38,-12,-50,30
28520,0.003,12.264,0.487,3.37,-0.03,-9.38,-10,-46,34
28521,0.064,11.776,0.426,3.37,-0.03,-9.38,-10,-46,34
28522,0.247,11.409,0.365,3.37,-0.03,-9.38,-9,-51,29
28523,0.125,11.348,0.182,3.45,-0.03,-9.38,-9,-51,29
28524,-0.058,11.287,0.060,3.45,0.05,-9.31,-8,-46,28
28525,-0.669,11.104,0.121,3.45,0.05,-9.31,-8,-46,28
28526,-0.425,10.555,-0.001,3.45,0.05,-9.31,-6,-50,26
28527,-0.363,9.822,-0.001,3.45,0.05,-9.31,-6,-50,26
28528,-0.363,9.334,0.060,3.45,0.05,-9.31,-7,-55,27
28529,-0.913,8.419,0.182,3.45,0.05,-9.31,-7,-55,27
28530,-0.913,7.808,0.243,3.45,-0.03,-9.31,-10,-48,32
28531,-0.363,7.503,0.487,3.45,-0.03,-9.31,-10,-48,32
28532,0.064,7.625,0.548,3.45,-0.03,-9.31,-9,-53,29
28533,-0.119,7.991,0.426,3.45,-0.03,-9.31,-9,-53,29
28534,-0.119,7.991,0.365,3.45,-0.03,-9.31,-9,-51,31
28535,-0.058,7.930,0.304,3.45,-0.03,-9.23,-9,-51,31
28536,0.308,7.991,0.182,3.45,-0.03,-9.23,-6,-48,34
28537,0.186,7.747,0.182,3.52,-0.03,-9.23,-6,-48,34
28538,0.186,6.771,0.182,3.52,-0.03,-9.23,-9,-53,29
28539,-0.119,5.428,0.182,3.52,-0.03,-9.23,-9,-53,29
28540,-0.119,4.451,0.060,3.60,-0.03,-9.23,-7,-51,29
28541,-0.058,3.291,0.121,3.60,-0.03,-9.23,-7,-51,29
28542,-0.180,2.010,0.121,3.60,-0.03,-9.23,-9,-55,35
28543,-0.058,0.728,0.121,3.68,-0.03,-9.23,-9,-55,35
28544,-0.180,0.240,0.243,3.60,-0.03,-9.23,-7,-51,25
28545,-0.363,-0.310,0.304,3.60,-0.03,-9.23,-7,-51,25
28546,0.003,-0.310,0.182,3.60,-0.03,-9.23,-10,-52,24
28547,-0.058,0.362,0.243,3.60,-0.03,-9.23,-10,-52,24
28548,0.003,1.216,0.365,3.52,-0.03,-9.23,-10,-50,22
28549,-0.486,2.132,0.426,3.45,-0.03,-9.31,-10,-50,22
28550,-0.669,3.597,0.487,3.45,-0.03,-9.31,-10,-44,28
28551,-0.425,5.550,0.487,3.37,-0.03,-9.31,-10,-44,28
28552,-0.302,7.747,0.487,3.29,-0.03,-9.38,-8,-46,28
28553,-0.302,10.067,0.121,3.29,-0.03,-9.38,-8,-46,28
28554,-0.241,12.813,-0.306,3.22,-0.03,-9.38,-4,-50,28
28555,0.003,15.377,-0.612,3.22,-0.03,-9.38,-4,-50,28
28556,0.308,17.330,-0.551,3.22,-0.03,-9.38,-10,-50,30
28557,0.064,18.856,-0.551,3.22,-0.03,-9.38,-10,-50,30
28558,-0.608,19.588,-0.123,3.29,-0.03,-9.38,-4,-50,26
28559,-0.730,19.344,0.121,3.29,-0.03,-9.38,-4,-50,26
28560,-0.486,18.001,0.487,3.37,-0.03,-9.38,-12,-50,28
28561,-0.425,16.475,0.548,3.45,-0.03,-9.31,-12,-50,28
28562,-0.180,14.583,0.487,3.52,-0.03,-9.31,-5,-49,31
28563,0.186,12.447,0.426,3.68,-0.03,-9.23,-5,-49,31
28564,0.186,10.005,0.365,3.75,-0.03,-9.23,-12,-48,26
28565,-0.180,8.052,0.609,3.75,-0.03,-9.23,-12,-48,26
28566,-0.547,7.198,0.487,3.83,-0.03,-9.15,-13,-53,31
28567,-0.363,7.320,0.548,3.83,-0.03,-9.15,-13,-53,31
28568,-0.241,8.174,0.365,3.75,0.05,-9.15,-12,-54,32
28569,-0.302,10.372,0.304,3.75,0.05,-9.23,-12,-54,32
28570,-0.852,12.813,0.426,3.68,0.05,-9.23,-10,-54,32
28571,-0.608,15.621,-0.062,3.60,0.05,-9.31,-10,-54,32
28572,-0.486,18.184,-0.367,3.52,0.05,-9.31,-10,-56,32
28573,-0.730,20.504,-0.306,3.52,0.05,-9.31,-10,-56,32
28574,-0.913,22.030,-0.123,3.45,0.05,-9.31,-12,-52,30
28575,-0.669,22.701,0.182,3.52,-0.03,-9.31,-12,-52,30
28576,-0.180,22.396,0.365,3.52,-0.03,-9.31,-8,-50,30
28577,-0.180,21.053,0.548,3.60,-0.03,-9.23,-8,-50,30
28578,-0.180,18.917,0.487,3.68,-0.03,-9.23,-7,-51,31
28579,-0.180,16.231,0.609,3.75,-0.03,-9.15,-7,-51,31
28580,0.125,13.851,0.304,3.91,-0.03,-9.15,-8,-52,30
28581,0.186,11.104,0.304,3.98,-0.03,-9.15,-8,-52,30
28582,0.369,8.113,0.365,4.06,0.05,-9.08,-12,-56,32
28583,-0.119,5.611,0.121,4.14,0.05,-9.08,-12,-56,32
28584,-0.425,3.780,0.121,4.21,0.05,-9.08,-8,-54,30
28585,-0.608,2.681,0.060,4.21,0.05,-9.08,-8,-54,30
28586,-0.669,2.071,0.121,4.14,0.05,-9.08,-8,-52,32
28587,-0.852,2.620,0.182,4.14,0.05,-9.08,-8,-52,32
28588,-0.730,3.719,0.243,4.06,0.05,-9.15,-10,-54,30
28589,-1.035,5.123,0.243,3.98,0.05,-9.15,-10,-54,30
28590,-0.913,6.648,0.243,3.91,-0.03,-9.15,-11,-55,33
28591,-0.363,8.357,0.121,3.83,-0.03,-9.23,-11,-55,33
28592,0.064,9.944,0.182,3.83,-0.03,-9.23,-6,-54,32
28593,0.186,10.799,0.060,3.83,-0.03,-9.23,-6,-54,32
28594,0.308,10.799,-0.001,3.83,-0.03,-9.23,-7,-57,29
28595,0.491,9.944,0.243,3.83,-0.03,-9.23,-7,-57,29
28596,0.186,8.785,0.243,3.91,-0.03,-9.15,-11,-55,37
28597,0.247,7.015,0.426,3.91,-0.03,-9.15,-11,-55,37
28598,0.308,5.367,0.304,3.98,-0.03,-9.08,-13,-53,29
28599,0.308,4.146,0.182,4.06,0.05,-9.08,-13,-53,29
28600,-0.119,2.986,0.121,4.06,0.05,-9.08,-15,-55,35
28601,-0.547,2.193,0.121,4.06,0.05,-9.00,-15,-55,35
28602,-0.852,2.254,0.121,4.06,0.05,-9.08,-13,-59,29
28603,-1.096,2.742,0.304,4.06,0.05,-9.08,-13,-59,29
28604,-0.913,3.902,0.487,3.98,0.05,-9.08,-12,-54,30
28605,-0.974,5.855,0.426,3.91,0.05,-9.08,-12,-54,30
28606,-0.730,8.357,0.243,3.83,0.05,-9.15,-8,-54,32
28607,-0.119,10.982,0.060,3.83,0.05,-9.15,-8,-54,32
28608,0.674,13.912,-0.306,3.75,0.05,-9.23,-13,-59,33
28609,0.613,16.109,-0.184,3.68,0.05,-9.23,-13,-59,33
28610,0.247,18.001,-0.245,3.68,-0.03,-9.23,-13,-53,39
28611,-0.058,18.917,-0.184,3.75,-0.03,-9.23,-13,-53,39
28612,-0.302,19.344,0.121,3.75,-0.03,-9.23,-7,-51,33
28613,-0.608,19.039,0.304,3.83,-0.03,-9.15,-7,-51,33
28614,-0.486,17.940,0.365,3.91,-0.03,-9.15,-7,-57,35
28615,-0.241,16.536,0.304,3.98,-0.03,-9.15,-7,-57,35
28616,-0.058,14.888,0.182,4.06,-0.03,-9.08,-8,-58,34
28617,-0.058,12.630,0.304,4.14,-0.03,-9.08,-8,-58,34
28618,-0.302,10.433,0.365,4.21,-0.03,-9.00,-5,-57,37
28619,-0.547,9.029,0.487,4.21,-0.03,-9.00,-5,-57,37
28620,-0.608,7.991,0.731,4.21,-0.03,-9.00,-10,-56,32
28621,-0.425,7.747,0.548,4.21,-0.03,-9.00,-10,-56,32
28622,-0.180,8.174,0.304,4.21,-0.03,-9.00,-12,-58,32
28623,-0.058,9.029,0.243,4.21,-0.03,-9.00,-12,-58,32
28624,-0.302,9.700,0.182,4.21,-0.03,-9.00,-8,-58,36
28625,-0.669,10.616,0.182,4.14,0.05,-9.00,-8,-58,36
28626,-0.852,12.081,-0.001,4.14,0.05,-9.00,-14,-60,34
28627,-0.852,13.607,0.060,4.06,0.05,-9.08,-14,-60,34
28628,-0.608,14.888,0.121,4.06,-0.03,-9.08,-10,-56,34
28629,-0.180,15.865,0.121,4.06,0.05,-9.08,-10,-56,34
28630,-0.180,16.659,0.060,4.06,-0.03,-9.08,-3,-57,39
28631,-0.425,16.842,0.121,4.14,-0.03,-9.08,-3,-57,39
28632,-0.547,16.170,0.243,4.14,-0.03,-9.08,-8,-66,34
28633,-0.302,14.888,0.487,4.21,-0.03,-9.00,-8,-66,34
28634,-0.180,13.057,0.365,4.29,-0.03,-9.00,-11,-61,33
28635,0.186,10.738,0.304,4.37,-0.03,-9.00,-11,-61,33
28636,0.552,7.991,0.243,4.44,-0.03,-8.92,-8,-56,36
28637,0.552,5.306,0.304,4.52,-0.03,-8.92,-8,-56,36
28638,0.125,2.742,-0.062,4.60,-0.03,-8.85,-10,-58,40
28639,0.125,0.728,-0.001,4.60,0.05,-8.85,-10,-58,40
28640,0.125,-0.615,-0.123,4.60,0.05,-8.85,-13,-59,33
28641,-0.425,-1.347,-0.123,4.60,0.05,-8.85,-13,-59,33
28642,-1.157,-1.469,-0.001,4.60,0.12,-8.85,-12,-60,38
28643,-0.974,-1.042,-0.001,4.52,0.12,-8.85,-12,-60,38
28644,-0.547,-0.310,-0.062,4.44,0.12,-8.92,-6,-58,34
28645,-0.302,0.667,-0.001,4.44,0.12,-8.92,-6,-58,34
28646,-0.119,1.460,0.060,4.37,0.05,-8.92,-3,-53,37
28647,0.125,2.071,-0.062,4.37,0.05,-8.92,-3,-53,37
28648,0.674,2.315,-0.123,4.37,0.05,-9.00,-3,-57,35
28649,0.918,2.193,-0.062,4.37,0.05,-9.00,-3,-57,35
28650,0.735,1.704,0.060,4.37,0.05,-9.00,-10,-58,40
28651,0.247,0.911,0.121,4.29,0.05,-9.00,-10,-58,40
28652,-0.302,0.301,0.243,4.29,0.05,-9.00,-5,-53,41
28653,-0.302,-0.005,0.365,4.29,0.05,-9.00,-5,-53,41
28654,-0.119,-0.127,0.182,4.29,0.05,-9.00,-12,-56,36
28655,-0.302,-0.188,0.243,4.29,0.05,-9.00,-12,-56,36
28656,-0.852,0.056,0.243,4.29,0.05,-9.00,-8,-56,32
28657,-0.913,0.667,0.182,4.29,0.05,-8.92,-8,-56,32
28658,-0.669,1.155,0.243,4.29,0.05,-9.00,-9,-63,35
28659,-0.425,1.827,0.304,4.29,0.05,-8.92,-9,-63,35
28660,0.003,2.803,0.121,4.29,0.05,-9.00,-8,-62,34
28661,0.247,3.597,-0.001,4.29,0.05,-9.00,-8,-62,34
28662,0.247,4.024,-0.123,4.29,0.05,-8.92,-8,-54,34
28663,0.125,4.085,-0.245,4.29,-0.03,-8.92,-8,-54,34
28664,0.003,3.963,-0.245,4.29,-0.03,-8.92,-6,-58,32
28665,0.186,3.719,-0.123,4.29,0.05,-8.92,-6,-58,32
28666,0.125,2.925,-0.245,4.37,0.05,-8.92,-10,-58,40
28667,0.308,1.949,-0.306,4.37,0.05,-8.92,-10,-58,40
28668,0.186,0.667,-0.245,4.44,0.05,-8.92,-10,-58,34
28669,0.064,-0.493,-0.184,4.44,0.05,-8.92,-10,-58,34
28670,0.125,-1.897,-0.062,4.44,0.05,-8.92,-10,-62,40
28671,0.491,-2.812,-0.001,4.44,0.05,-8.92,-10,-62,40
