seq,gx,gy,gz,ax,ay,az,mx,my,mz
3204,-0.041,-0.086,0.031,0.03,-0.01,-9.77,48,-52,16
3205,-0.102,0.036,-0.091,0.03,-0.01,-9.77,48,-52,16
3206,0.081,0.036,0.031,0.03,-0.01,-9.77,49,-55,7
3207,-0.102,-0.086,0.154,0.03,-0.01,-9.77,49,-55,7
3208,0.020,0.036,-0.030,0.03,-0.01,-9.77,49,-57,13
3209,-0.041,-0.147,-0.030,0.03,-0.01,-9.77,49,-57,13
3210,0.081,0.036,0.092,0.03,-0.01,-9.77,52,-52,10
3211,0.081,-0.025,0.031,0.03,-0.01,-9.77,52,-52,10
3212,0.081,0.097,-0.030,0.03,-0.01,-9.85,49,-51,13
3213,0.081,-0.025,0.031,0.03,-0.01,-9.77,49,-51,13
3214,0.081,0.097,-0.091,0.03,-0.01,-9.85,50,-54,10
3215,0.020,-0.086,0.031,0.03,-0.01,-9.85,50,-54,10
3216,0.020,-0.025,0.031,0.03,-0.01,-9.77,51,-51,5
3217,0.020,0.036,-0.152,0.03,-0.01,-9.77,51,-51,5
3218,0.020,-0.086,-0.030,0.03,-0.01,-9.77,49,-53,3
3219,0.020,0.158,0.092,0.03,-0.01,-9.77,49,-53,3
3220,0.020,0.036,0.092,0.03,-0.01,-9.77,49,-51,7
3221,0.081,0.036,0.154,0.03,-0.01,-9.77,49,-51,7
3222,0.020,-0.025,0.092,0.03,-0.01,-9.77,49,-55,7
3223,0.081,-0.025,-0.030,0.03,-0.01,-9.77,49,-55,7
3224,0.081,-0.086,0.031,0.10,-0.01,-9.77,53,-55,7
3225,0.020,-0.025,0.031,0.10,-0.01,-9.85,53,-55,7
3226,0.081,-0.025,0.031,0.03,-0.01,-9.85,50,-50,12
3227,-0.041,0.097,0.092,0.03,-0.01,-9.85,50,-50,12
3228,-0.041,-0.086,0.031,0.03,-0.01,-9.77,51,-53,11
3229,0.081,-0.025,-0.030,0.03,-0.01,-9.85,51,-53,11
3230,0.020,-0.025,-0.091,0.03,-0.01,-9.77,49,-55,7
3231,0.020,-0.025,-0.091,0.03,-0.01,-9.77,49,-55,7
3232,0.020,-0.025,-0.030,0.03,-0.01,-9.77,51,-49,11
3233,-0.102,-0.086,-0.030,0.03,-0.01,-9.77,51,-49,11
3234,0.020,0.036,0.031,0.03,-0.01,-9.77,51,-55,7
3235,0.020,-0.025,0.031,0.03,-0.01,-9.77,51,-55,7
3236,0.020,-0.025,-0.030,0.03,-0.01,-9.77,44,-52,6
3237,0.020,-0.025,-0.030,0.03,-0.01,-9.77,44,-52,6
3238,-0.041,-0.086,-0.030,0.03,-0.01,-9.77,52,-56,6
3239,0.020,-0.086,-0.030,0.03,-0.01,-9.77,52,-56,6
3240,-0.041,-0.147,-0.030,0.03,-0.01,-9.77,50,-54,10
3241,-0.041,0.036,-0.030,0.03,-0.01,-9.77,50,-54,10
3242,0.020,0.036,-0.030,0.03,-0.01,-9.85,53,-53,7
3243,0.020,0.036,0.031,0.03,-0.01,-9.85,53,-53,7
3244,0.020,-0.086,0.031,0.03,-0.01,-9.85,46,-50,4
3245,0.081,-0.025,-0.030,0.03,-0.01,-9.85,46,-50,4
3246,0.020,-0.025,-0.030,0.03,-0.01,-9.85,48,-52,8
3247,-0.163,-0.025,0.031,0.03,-0.01,-9.85,48,-52,8
3248,0.020,-0.086,0.031,-0.05,-0.01,-9.85,54,-54,10
3249,0.020,-0.086,0.031,-0.05,-0.01,-9.85,54,-54,10
3250,-0.041,0.036,-0.030,-0.05,-0.01,-9.77,55,-53,9
3251,0.081,0.036,-0.030,-0.05,-0.01,-9.77,55,-53,9
3252,-0.163,-0.025,-0.030,-0.05,-0.01,-9.77,52,-52,12
3253,0.020,-0.025,0.031,-0.05,-0.01,-9.77,52,-52,12
3254,-0.041,-0.208,-0.030,-0.05,-0.01,-9.85,51,-51,9
3255,-0.102,0.097,0.031,-0.05,-0.01,-9.85,51,-51,9
3256,0.020,-0.025,0.031,-0.05,-0.01,-9.85,51,-59,11
3257,-0.102,-0.025,-0.091,-0.05,-0.01,-9.85,51,-59,11
3258,-0.041,0.036,-0.091,-0.05,-0.01,-9.85,52,-52,8
3259,0.020,0.097,-0.091,-0.05,-0.01,-9.77,52,-52,8
3260,0.081,0.036,-0.030,-0.05,-0.01,-9.77,50,-54,8
3261,0.081,0.097,-0.030,-0.05,-0.01,-9.77,50,-54,8
3262,0.020,-0.025,-0.030,-0.05,-0.01,-9.77,53,-53,7
3263,-0.041,-0.025,0.031,-0.05,-0.01,-9.77,53,-53,7
3264,-0.041,0.036,-0.030,-0.05,-0.01,-9.77,50,-56,6
3265,-0.041,-0.025,-0.091,-0.05,-0.01,-9.77,50,-56,6
3266,0.020,0.036,0.031,-0.05,-0.01,-9.77,50,-56,8
3267,0.020,-0.025,0.031,-0.05,-0.01,-9.77,50,-56,8
3268,0.020,0.036,0.031,-0.05,-0.01,-9.77,47,-55,5
3269,-0.041,-0.086,0.031,-0.05,-0.01,-9.77,47,-55,5
3270,-0.041,0.036,0.154,-0.05,-0.01,-9.77,47,-53,7
3271,0.081,0.036,-0.030,-0.05,-0.01,-9.77,47,-53,7
3272,0.020,0.036,0.031,-0.05,-0.01,-9.85,50,-54,10
3273,-0.041,0.036,-0.030,-0.05,-0.01,-9.77,50,-54,10
3274,0.020,0.036,-0.091,-0.05,-0.01,-9.77,51,-53,7
3275,-0.102,0.036,0.031,-0.05,-0.01,-9.77,51,-53,7
3276,-0.041,-0.086,0.031,-0.05,-0.01,-9.77,48,-52,6
3277,0.020,0.097,0.031,0.03,-0.01,-9.77,48,-52,6
3278,0.081,-0.086,-0.091,0.03,-0.01,-9.77,55,-53,9
3279,-0.041,-0.086,-0.091,0.03,-0.01,-9.77,55,-53,9
3280,0.020,-0.086,-0.030,0.03,-0.01,-9.77,48,-52,6
3281,0.020,-0.025,-0.152,0.03,-0.01,-9.77,48,-52,6
3282,0.020,-0.086,-0.030,0.03,-0.01,-9.77,49,-57,5
3283,-0.102,-0.025,0.092,0.10,-0.01,-9.77,49,-57,5
3284,0.020,-0.025,0.092,0.10,-0.01,-9.77,54,-54,12
3285,0.020,0.158,0.031,0.03,-0.01,-9.77,54,-54,12
3286,0.020,0.097,0.031,0.03,-0.01,-9.77,53,-53,3
3287,-0.041,-0.147,0.031,0.03,-0.01,-9.77,53,-53,3
3288,-0.041,-0.025,0.031,0.10,-0.01,-9.77,52,-50,10
3289,-0.041,0.036,0.031,0.03,-0.01,-9.77,52,-50,10
3290,0.020,-0.086,-0.030,0.03,-0.01,-9.85,48,-54,8
3291,0.020,0.097,-0.091,0.03,-0.01,-9.85,48,-54,8
3292,0.020,-0.025,0.092,0.03,-0.01,-9.85,54,-56,8
3293,-0.041,-0.025,0.031,-0.05,-0.01,-9.85,54,-56,8
3294,-0.041,-0.086,-0.030,-0.05,0.07,-9.85,55,-55,9
3295,0.081,0.036,0.031,-0.05,0.07,-9.85,55,-55,9
3296,0.081,0.036,-0.030,-0.05,0.07,-9.77,50,-50,6
3297,-0.041,-0.025,0.031,-0.05,0.07,-9.77,50,-50,6
3298,-0.041,-0.025,0.031,-0.05,0.07,-9.77,47,-55,7
3299,-0.102,0.097,0.031,-0.05,-0.01,-9.77,47,-55,7
3300,0.020,-0.025,-0.030,-0.05,-0.01,-9.77,47,-51,13
3301,0.020,0.036,0.031,-0.05,-0.01,-9.77,47,-51,13
3302,0.081,-0.025,0.092,-0.05,-0.01,-9.77,50,-56,12
3303,-0.102,0.036,0.031,0.03,-0.01,-9.77,50,-56,12
3304,0.081,0.036,-0.030,0.03,-0.01,-9.77,47,-55,11
3305,0.020,0.036,-0.030,0.03,-0.01,-9.77,47,-55,11
3306,0.020,-0.086,0.092,0.03,-0.01,-9.85,47,-53,11
3307,-0.041,-0.025,0.031,0.03,-0.01,-9.85,47,-53,11
3308,0.020,-0.025,-0.091,-0.05,-0.01,-9.85,48,-56,6
3309,-0.041,-0.025,0.031,-0.05,-0.01,-9.85,48,-56,6
3310,-0.041,-0.025,-0.030,-0.05,-0.01,-9.85,49,-55,13
3311,-0.102,0.097,-0.091,-0.05,-0.01,-9.85,49,-55,13
3312,0.020,-0.086,-0.030,-0.05,-0.01,-9.77,50,-46,12
3313,-0.102,0.036,-0.030,-0.05,-0.01,-9.77,50,-46,12
3314,0.020,0.036,-0.091,-0.05,-0.01,-9.77,51,-51,11
3315,0.020,-0.025,-0.030,-0.05,-0.01,-9.77,51,-51,11
3316,-0.041,0.036,0.031,0.03,-0.01,-9.77,45,-53,7
3317,-0.041,-0.086,-0.030,0.03,-0.01,-9.77,45,-53,7
3318,-0.102,0.036,-0.030,0.03,-0.01,-9.77,48,-54,8
3319,-0.102,0.036,-0.091,-0.05,-0.01,-9.77,48,-54,8
3320,-0.041,-0.086,0.031,-0.05,-0.01,-9.77,54,-50,12
3321,0.020,0.036,0.092,-0.05,-0.01,-9.77,54,-50,12
3322,0.020,0.158,-0.030,-0.05,-0.01,-9.77,50,-54,12
3323,0.020,-0.147,-0.030,-0.05,-0.01,-9.77,50,-54,12
3324,-0.102,0.036,0.092,-0.05,-0.01,-9.77,48,-56,10
3325,-0.041,0.036,0.031,-0.05,-0.01,-9.77,48,-56,10
3326,0.020,-0.025,-0.091,-0.05,-0.01,-9.77,49,-51,9
3327,-0.041,-0.025,0.031,-0.05,-0.01,-9.77,49,-51,9
3328,-0.163,0.036,-0.030,-0.05,-0.01,-9.77,52,-48,12
3329,0.020,-0.086,0.031,-0.05,-0.01,-9.77,52,-48,12
3330,-0.102,0.036,-0.030,-0.05,-0.01,-9.77,51,-53,9
3331,0.020,-0.025,0.031,-0.05,-0.01,-9.77,51,-53,9
3332,0.020,-0.025,-0.030,-0.05,-0.09,-9.77,53,-53,13
3333,0.020,-0.086,-0.030,-0.05,-0.01,-9.77,53,-53,13
3334,-0.041,0.036,-0.091,-0.05,-0.01,-9.77,56,-54,6
3335,-0.041,0.036,0.031,0.03,-0.09,-9.77,56,-54,6
3336,-0.041,0.036,-0.030,0.03,-0.01,-9.77,49,-57,5
3337,0.020,-0.025,-0.030,0.03,-0.01,-9.77,49,-57,5
3338,0.020,0.036,0.092,0.03,-0.01,-9.77,48,-56,4
3339,-0.041,-0.025,-0.030,-0.05,-0.01,-9.77,48,-56,4
3340,-0.041,0.036,0.031,-0.05,-0.01,-9.77,49,-53,7
3341,0.081,-0.086,0.092,-0.05,-0.01,-9.77,49,-53,7
3342,-0.041,-0.025,0.031,0.03,-0.01,-9.77,51,-55,11
3343,-0.102,-0.147,-0.030,0.03,-0.01,-9.77,51,-55,11
3344,-0.041,0.036,-0.030,0.03,-0.01,-9.77,46,-50,12
3345,-0.041,-0.025,0.031,0.03,-0.01,-9.77,46,-50,12
3346,-0.041,-0.086,-0.091,0.03,-0.01,-9.77,45,-53,13
3347,0.081,0.036,0.031,0.03,-0.01,-9.77,45,-53,13
3348,0.020,0.036,-0.091,0.03,-0.01,-9.77,51,-51,5
3349,0.081,0.036,0.031,0.03,-0.01,-9.77,51,-51,5
3350,-0.041,0.158,-0.091,0.03,-0.01,-9.77,47,-55,11
3351,-0.041,0.036,0.092,0.03,-0.09,-9.85,47,-55,11
3352,0.020,0.158,-0.030,0.10,-0.01,-9.77,52,-50,14
3353,0.020,-0.086,0.031,0.10,-0.01,-9.77,52,-50,14
3354,-0.041,-0.025,-0.030,0.10,-0.01,-9.85,52,-52,6
3355,-0.041,0.036,0.031,0.10,-0.01,-9.85,52,-52,6
3356,-0.041,-0.147,-0.091,0.10,-0.01,-9.85,52,-52,8
3357,0.020,0.036,-0.152,0.10,-0.01,-9.85,52,-52,8
3358,-0.041,0.036,-0.030,0.10,-0.01,-9.77,49,-51,7
3359,0.020,0.097,-0.030,0.10,-0.01,-9.77,49,-51,7
3360,0.020,0.097,-0.030,0.10,-0.01,-9.77,53,-53,7
3361,-0.041,-0.086,-0.030,0.10,-0.01,-9.77,53,-53,7
3362,-0.041,0.036,0.031,0.03,-0.01,-9.77,48,-50,14
3363,0.020,-0.086,0.031,0.03,-0.01,-9.77,48,-50,14
3364,0.020,0.036,0.031,0.03,-0.01,-9.77,50,-56,10
3365,0.081,0.097,-0.091,0.03,-0.01,-9.77,50,-56,10
3366,0.020,-0.025,-0.030,0.03,-0.01,-9.77,52,-48,6
3367,0.081,-0.086,0.092,0.03,-0.01,-9.77,52,-48,6
3368,0.020,-0.025,0.031,0.10,-0.01,-9.85,46,-52,6
3369,-0.102,0.158,-0.030,0.03,-0.01,-9.85,46,-52,6
3370,0.081,0.036,0.031,0.03,-0.01,-9.85,52,-54,10
3371,0.020,0.036,0.092,0.03,-0.01,-9.85,52,-54,10
3372,-0.041,0.036,0.092,0.03,-0.01,-9.85,48,-52,10
3373,0.020,0.097,0.031,0.03,-0.01,-9.85,48,-52,10
3374,-0.041,-0.086,0.092,0.03,-0.09,-9.85,47,-55,9
3375,0.020,0.097,-0.030,0.03,-0.01,-9.77,47,-55,9
3376,0.020,-0.086,0.154,0.03,-0.01,-9.85,50,-56,14
3377,0.020,-0.025,0.092,-0.05,-0.01,-9.85,50,-56,14
3378,0.142,0.036,0.092,-0.05,-0.01,-9.77,51,-55,11
3379,-0.041,0.158,-0.030,-0.05,-0.01,-9.77,51,-55,11
3380,-0.102,-0.025,0.092,-0.05,-0.01,-9.77,50,-54,6
3381,0.020,0.036,-0.030,-0.05,-0.01,-9.77,50,-54,6
3382,0.020,0.036,0.031,-0.05,-0.01,-9.77,47,-53,7
3383,0.020,0.097,0.031,-0.05,-0.01,-9.77,47,-53,7
3384,-0.041,0.036,-0.030,-0.05,-0.01,-9.77,52,-56,8
3385,-0.041,0.158,0.092,-0.05,-0.01,-9.77,52,-56,8
3386,0.081,0.158,0.092,-0.05,-0.01,-9.77,49,-55,3
3387,-0.041,0.036,0.031,-0.05,-0.01,-9.77,49,-55,3
3388,0.081,-0.147,0.031,-0.05,-0.01,-9.77,50,-54,10
3389,-0.041,0.097,0.031,-0.05,-0.01,-9.77,50,-54,10
3390,-0.041,0.036,0.031,-0.05,-0.01,-9.77,49,-49,7
3391,0.020,0.036,0.031,-0.05,-0.01,-9.77,49,-49,7
3392,-0.041,-0.025,0.031,-0.05,-0.01,-9.77,51,-55,9
3393,-0.041,0.097,0.031,-0.05,-0.01,-9.77,51,-55,9
3394,0.020,-0.025,0.031,-0.05,-0.01,-9.77,48,-50,8
3395,-0.102,0.036,-0.030,-0.05,-0.01,-9.77,48,-50,8
3396,0.020,-0.025,0.031,-0.05,-0.01,-9.77,49,-51,3
3397,-0.041,0.097,-0.030,0.03,-0.01,-9.77,49,-51,3
3398,0.020,-0.086,0.031,-0.05,-0.01,-9.85,47,-59,5
3399,-0.102,-0.025,0.031,-0.05,-0.01,-9.85,47,-59,5
3400,-0.041,0.097,-0.030,-0.05,0.07,-9.85,49,-51,11
3401,0.020,0.097,0.092,-0.05,0.07,-9.85,49,-51,11
3402,0.020,0.036,-0.091,-0.05,0.07,-9.85,49,-55,13
3403,0.081,0.036,0.031,-0.05,-0.01,-9.85,49,-55,13
3404,-0.102,0.097,0.031,-0.05,-0.01,-9.85,49,-53,7
3405,-0.041,-0.025,-0.030,-0.05,0.07,-9.85,49,-53,7
3406,-0.041,-0.025,-0.030,-0.05,-0.01,-9.85,47,-59,5
3407,0.020,0.097,-0.030,-0.05,-0.01,-9.85,47,-59,5
3408,-0.041,-0.025,0.092,-0.05,-0.01,-9.85,47,-51,9
3409,-0.041,-0.086,0.031,-0.05,-0.01,-9.85,47,-51,9
3410,-0.041,-0.147,-0.030,-0.05,-0.01,-9.85,51,-55,5
3411,0.081,0.036,-0.030,-0.05,-0.01,-9.85,51,-55,5
3412,0.081,-0.086,-0.091,-0.05,-0.01,-9.85,50,-54,8
3413,-0.041,-0.086,-0.091,-0.05,-0.01,-9.77,50,-54,8
3414,0.020,0.097,-0.030,-0.05,0.07,-9.77,46,-60,6
3415,0.020,-0.086,-0.091,-0.05,0.07,-9.77,46,-60,6
3416,-0.041,-0.025,0.031,-0.05,0.07,-9.77,50,-58,8
3417,-0.041,0.158,0.092,-0.05,0.07,-9.77,50,-58,8
3418,-0.041,-0.086,-0.030,-0.05,-0.01,-9.77,48,-54,12
3419,0.020,-0.269,-0.091,-0.05,-0.01,-9.77,48,-54,12
3420,0.020,-0.086,0.092,-0.05,-0.01,-9.85,48,-56,8
3421,-0.041,0.097,-0.091,-0.05,-0.01,-9.85,48,-56,8
3422,-0.041,0.097,0.031,-0.05,-0.01,-9.77,50,-52,6
3423,-0.102,-0.025,0.154,-0.05,-0.01,-9.77,50,-52,6
3424,0.020,0.036,-0.030,-0.05,-0.01,-9.77,48,-52,10
3425,0.020,0.036,-0.091,-0.05,-0.01,-9.85,48,-52,10
3426,0.020,0.036,-0.030,-0.05,-0.01,-9.85,49,-53,11
3427,-0.102,-0.025,0.092,-0.05,-0.01,-9.85,49,-53,11
3428,0.020,0.097,-0.030,-0.05,-0.01,-9.77,48,-52,8
3429,-0.041,-0.025,-0.030,-0.05,-0.01,-9.85,48,-52,8
3430,-0.041,0.036,-0.091,-0.05,-0.01,-9.85,46,-54,10
3431,0.081,-0.025,0.031,-0.05,-0.01,-9.85,46,-54,10
3432,0.020,-0.025,-0.091,-0.05,-0.01,-9.85,52,-56,8
3433,0.020,0.036,0.031,-0.05,-0.01,-9.85,52,-56,8
3434,-0.041,0.036,0.092,0.03,-0.01,-9.77,56,-52,4
3435,-0.041,-0.025,0.031,0.03,-0.01,-9.77,56,-52,4
3436,-0.102,0.036,0.031,0.03,-0.01,-9.77,48,-54,8
3437,0.142,-0.025,-0.091,0.03,-0.01,-9.77,48,-54,8
3438,0.020,-0.025,-0.091,0.03,-0.01,-9.77,48,-54,10
3439,-0.041,0.036,0.031,0.03,-0.01,-9.77,48,-54,10
3440,-0.041,-0.025,-0.030,0.03,-0.01,-9.77,46,-52,8
3441,0.081,-0.025,0.031,0.03,-0.01,-9.77,46,-52,8
3442,0.081,-0.025,-0.030,0.03,-0.01,-9.77,49,-57,11
3443,0.142,-0.025,0.031,0.03,-0.01,-9.77,49,-57,11
3444,0.020,-0.025,-0.091,0.03,-0.01,-9.77,55,-55,5
3445,-0.041,0.036,-0.030,0.03,-0.01,-9.85,55,-55,5
3446,-0.102,-0.086,-0.030,0.03,-0.01,-9.85,55,-49,11
3447,0.020,-0.025,0.031,0.03,-0.01,-9.77,55,-49,11
3448,0.020,-0.025,-0.091,0.03,-0.01,-9.85,55,-51,9
3449,-0.041,0.036,0.031,-0.05,-0.01,-9.85,55,-51,9
3450,0.020,-0.086,0.031,0.03,-0.01,-9.85,48,-56,8
3451,-0.041,-0.086,0.031,-0.05,-0.01,-9.85,48,-56,8
3452,-0.041,0.036,0.092,-0.05,-0.01,-9.85,48,-50,8
3453,-0.041,0.097,0.031,-0.05,-0.01,-9.85,48,-50,8
3454,-0.041,0.097,0.031,-0.05,-0.01,-9.85,51,-57,7
3455,-0.041,0.036,-0.030,-0.05,-0.01,-9.85,51,-57,7
3456,0.081,0.097,-0.030,-0.05,-0.01,-9.77,50,-54,8
3457,0.020,0.036,-0.091,-0.05,-0.01,-9.85,50,-54,8
3458,0.020,0.036,-0.030,-0.05,-0.01,-9.85,50,-54,10
3459,-0.041,-0.025,-0.152,-0.05,-0.01,-9.85,50,-54,10
3460,0.020,-0.025,0.092,-0.05,-0.01,-9.85,52,-48,4
3461,-0.102,-0.025,-0.030,-0.05,-0.01,-9.85,52,-48,4
3462,0.142,-0.025,-0.030,-0.05,-0.01,-9.85,51,-51,13
3463,0.020,-0.025,0.092,-0.05,-0.01,-9.85,51,-51,13
3464,0.081,-0.086,0.092,-0.05,-0.01,-9.85,45,-55,9
3465,0.081,-0.025,0.092,-0.05,-0.01,-9.85,45,-55,9
3466,-0.102,0.036,0.092,-0.05,-0.01,-9.85,50,-52,8
3467,0.020,-0.086,-0.030,0.03,-0.01,-9.85,50,-52,8
3468,0.020,-0.025,-0.091,0.03,-0.01,-9.85,49,-55,9
3469,0.020,0.036,0.031,0.03,-0.01,-9.77,49,-55,9
3470,-0.041,-0.025,0.031,0.03,-0.01,-9.77,54,-54,12
3471,-0.041,-0.025,0.031,0.03,-0.01,-9.77,54,-54,12
3472,0.081,-0.086,-0.091,0.03,-0.01,-9.77,54,-50,6
3473,0.020,-0.086,-0.030,0.03,-0.01,-9.85,54,-50,6
3474,0.081,0.036,0.031,0.03,-0.01,-9.77,52,-54,12
3475,0.081,-0.025,-0.030,-0.05,-0.01,-9.85,52,-54,12
3476,0.020,-0.086,0.154,-0.05,-0.01,-9.85,46,-52,10
3477,0.020,-0.025,-0.030,-0.05,-0.01,-9.85,46,-52,10
3478,-0.163,0.036,0.031,0.03,-0.01,-9.85,49,-53,5
3479,0.081,0.036,0.031,0.03,-0.01,-9.85,49,-53,5
3480,0.020,-0.025,0.031,0.03,-0.01,-9.85,46,-52,14
3481,0.081,-0.147,0.031,0.03,-0.01,-9.85,46,-52,14
3482,-0.102,-0.086,-0.030,0.10,-0.01,-9.85,49,-49,7
3483,0.020,-0.086,-0.030,0.10,-0.01,-9.85,49,-49,7
3484,-0.041,-0.025,-0.030,0.10,-0.01,-9.85,50,-52,10
3485,-0.041,0.036,0.092,0.10,-0.01,-9.85,50,-52,10
3486,0.020,0.036,-0.030,0.10,-0.01,-9.85,52,-52,8
3487,0.020,-0.025,-0.030,0.10,-0.01,-9.85,52,-52,8
3488,-0.041,0.036,-0.030,0.03,-0.01,-9.85,51,-51,11
3489,0.020,0.036,-0.030,0.03,-0.01,-9.85,51,-51,11
3490,-0.041,0.036,-0.030,0.03,-0.01,-9.85,52,-54,6
3491,0.020,-0.025,0.092,0.03,-0.01,-9.85,52,-54,6
3492,0.081,-0.025,0.092,0.03,-0.01,-9.85,49,-53,5
3493,0.081,-0.025,0.031,0.03,-0.01,-9.85,49,-53,5
3494,0.020,0.036,0.031,0.03,-0.01,-9.85,54,-52,16
3495,-0.102,0.097,-0.030,0.03,-0.01,-9.93,54,-52,16
3496,0.020,0.036,-0.030,-0.05,-0.01,-9.85,51,-53,9
3497,-0.041,-0.086,-0.030,-0.05,-0.01,-9.85,51,-53,9
3498,-0.102,0.036,0.154,-0.05,-0.01,-9.85,55,-53,11
3499,0.081,0.036,-0.030,0.03,-0.01,-9.85,55,-53,11
3500,-0.041,0.097,0.031,0.03,-0.01,-9.85,51,-55,11
3501,0.020,0.036,-0.091,0.03,-0.01,-9.85,51,-55,11
3502,0.020,0.097,0.031,0.03,-0.01,-9.85,47,-53,11
3503,0.203,0.097,-0.030,0.03,-0.01,-9.77,47,-53,11
3504,-0.041,0.036,0.031,0.03,-0.01,-9.77,53,-51,3
3505,0.020,-0.025,-0.152,0.03,-0.01,-9.85,53,-51,3
3506,0.020,0.097,-0.030,-0.05,-0.01,-9.77,50,-56,12
3507,-0.041,-0.086,0.092,-0.05,-0.01,-9.77,50,-56,12
3508,-0.102,0.036,0.031,-0.05,-0.01,-9.77,48,-54,8
3509,-0.163,-0.025,0.031,-0.05,-0.01,-9.77,48,-54,8
3510,0.020,0.036,0.031,-0.05,-0.01,-9.77,49,-51,5
3511,0.081,-0.086,-0.030,-0.05,-0.01,-9.77,49,-51,5
3512,0.020,-0.025,0.031,-0.05,-0.01,-9.77,47,-51,15
3513,0.142,0.097,0.092,0.03,-0.01,-9.85,47,-51,15
3514,0.081,0.097,0.092,-0.05,-0.01,-9.77,53,-53,11
3515,0.020,-0.025,0.031,-0.05,-0.01,-9.77,53,-53,11
3516,-0.041,-0.086,0.031,-0.05,-0.01,-9.85,53,-47,13
3517,0.020,0.036,0.031,-0.05,-0.01,-9.85,53,-47,13
3518,0.020,0.036,0.031,-0.05,-0.01,-9.85,48,-54,14
3519,0.020,-0.025,-0.091,-0.05,0.07,-9.85,48,-54,14
3520,0.081,-0.025,-0.030,0.03,0.07,-9.85,46,-54,8
3521,0.020,-0.025,0.031,0.03,-0.01,-9.85,46,-54,8
3522,0.020,0.036,0.031,0.03,0.07,-9.85,50,-50,4
3523,-0.102,-0.025,0.031,0.03,0.07,-9.85,50,-50,4
3524,-0.041,-0.025,-0.030,0.03,-0.01,-9.85,51,-53,7
3525,0.020,0.097,0.092,0.03,-0.01,-9.85,51,-53,7
3526,-0.041,0.158,-0.030,0.10,-0.01,-9.85,48,-56,8
3527,0.081,0.036,-0.030,0.10,-0.01,-9.85,48,-56,8
3528,-0.102,0.036,0.154,0.10,-0.01,-9.85,47,-55,9
3529,-0.041,-0.147,0.031,0.10,-0.01,-9.85,47,-55,9
3530,0.081,-0.147,-0.030,0.10,-0.01,-9.85,54,-50,10
3531,0.020,-0.025,-0.030,0.10,-0.01,-9.85,54,-50,10
3532,-0.041,-0.086,-0.091,0.03,-0.01,-9.85,50,-50,6
3533,-0.041,-0.147,0.031,0.03,-0.01,-9.85,50,-50,6
3534,-0.041,-0.025,-0.030,0.03,-0.01,-9.85,50,-52,8
3535,-0.102,-0.025,0.031,0.03,-0.01,-9.85,50,-52,8
3536,0.020,-0.025,-0.152,0.03,-0.01,-9.85,48,-50,10
3537,0.020,0.036,-0.091,0.03,-0.01,-9.77,48,-50,10
3538,0.020,0.036,0.031,0.03,-0.01,-9.85,55,-59,15
3539,0.020,0.036,-0.091,0.03,-0.01,-9.77,55,-59,15
3540,0.020,-0.025,0.031,0.03,-0.01,-9.85,44,-60,8
3541,-0.102,0.036,0.092,0.03,-0.01,-9.85,44,-60,8
3542,-0.041,-0.086,-0.091,0.03,-0.01,-9.77,56,-52,10
3543,0.020,-0.086,0.031,0.03,-0.01,-9.77,56,-52,10
3544,0.081,-0.086,-0.030,0.03,-0.01,-9.85,52,-54,10
3545,-0.041,-0.086,0.092,0.03,-0.01,-9.85,52,-54,10
3546,0.020,-0.147,0.031,0.03,-0.01,-9.77,48,-50,8
3547,0.081,-0.025,-0.091,0.03,-0.01,-9.77,48,-50,8
3548,0.020,-0.025,-0.030,0.03,-0.01,-9.77,52,-50,8
3549,0.020,-0.025,-0.091,0.03,-0.01,-9.77,52,-50,8
3550,0.020,-0.025,-0.030,0.03,-0.01,-9.77,50,-52,10
3551,0.020,-0.025,0.031,0.03,-0.01,-9.85,50,-52,10
3552,-0.041,-0.147,-0.030,0.03,-0.01,-9.85,49,-51,13
3553,0.020,-0.025,-0.030,0.03,-0.01,-9.85,49,-51,13
3554,0.020,-0.025,-0.030,0.03,-0.01,-9.85,49,-53,13
3555,0.081,0.036,-0.030,0.03,-0.01,-9.85,49,-53,13
3556,-0.041,-0.086,0.031,0.03,-0.01,-9.85,49,-55,9
3557,0.020,-0.208,-0.030,0.03,-0.01,-9.77,49,-55,9
3558,0.081,-0.086,-0.030,0.03,-0.01,-9.77,56,-52,8
3559,0.020,-0.025,0.031,0.03,-0.01,-9.77,56,-52,8
3560,0.020,0.036,0.092,0.03,-0.01,-9.77,50,-54,10
3561,0.081,0.097,0.092,0.03,-0.01,-9.77,50,-54,10
3562,-0.102,0.036,-0.091,0.03,-0.01,-9.77,49,-59,7
3563,-0.102,-0.086,0.092,0.03,-0.01,-9.77,49,-59,7
3564,0.142,-0.086,0.154,0.03,-0.01,-9.77,48,-56,6
3565,0.081,-0.147,-0.030,0.03,-0.01,-9.77,48,-56,6
3566,0.020,-0.147,0.031,0.03,-0.01,-9.77,52,-58,6
3567,0.020,0.036,-0.030,0.03,-0.01,-9.77,52,-58,6
3568,-0.041,0.036,-0.030,0.03,-0.01,-9.77,49,-51,9
3569,0.020,0.036,0.092,0.03,-0.01,-9.85,49,-51,9
3570,0.081,0.036,0.031,0.03,-0.01,-9.85,49,-57,11
3571,-0.041,-0.025,-0.091,0.03,-0.01,-9.85,49,-57,11
3572,0.081,-0.086,-0.030,0.03,-0.01,-9.85,51,-57,13
3573,-0.041,-0.025,0.031,0.03,-0.01,-9.85,51,-57,13
3574,0.020,0.097,0.092,0.03,-0.01,-9.85,49,-53,7
3575,0.020,-0.147,0.031,0.03,-0.01,-9.85,49,-53,7
3576,0.020,-0.025,0.031,0.10,-0.01,-9.85,48,-52,12
3577,0.081,-0.025,-0.030,0.10,-0.01,-9.85,48,-52,12
3578,0.020,-0.025,-0.030,0.10,-0.01,-9.85,49,-51,5
3579,0.020,-0.025,0.031,0.10,-0.01,-9.85,49,-51,5
3580,0.020,0.158,0.031,0.03,-0.01,-9.85,49,-53,9
3581,0.020,0.097,-0.030,0.10,-0.01,-9.85,49,-53,9
3582,0.020,-0.086,-0.091,0.10,-0.01,-9.85,48,-54,8
3583,-0.041,-0.025,0.092,0.10,-0.01,-9.77,48,-54,8
3584,0.081,-0.025,0.031,0.03,-0.01,-9.77,51,-53,11
3585,0.020,0.097,0.031,0.03,-0.01,-9.77,51,-53,11
3586,-0.041,-0.025,-0.091,0.03,-0.01,-9.77,51,-53,9
3587,-0.041,0.036,0.031,0.03,-0.01,-9.77,51,-53,9
3588,-0.041,-0.025,-0.091,0.03,-0.01,-9.77,46,-52,8
3589,-0.041,0.097,0.031,0.03,-0.01,-9.77,46,-52,8
3590,0.020,0.036,0.154,0.03,-0.01,-9.77,50,-56,6
3591,0.081,-0.025,0.031,0.03,-0.01,-9.77,50,-56,6
3592,0.081,-0.086,-0.030,0.03,-0.01,-9.77,44,-56,6
3593,-0.102,-0.025,0.031,0.03,-0.01,-9.85,44,-56,6
3594,0.081,-0.086,0.092,0.03,-0.01,-9.85,50,-54,8
3595,-0.102,0.036,0.031,0.03,-0.01,-9.85,50,-54,8
3596,0.081,-0.086,0.092,0.03,-0.01,-9.85,53,-51,9
3597,0.020,-0.025,-0.030,0.03,-0.01,-9.85,53,-51,9
3598,0.020,0.036,-0.030,0.03,-0.01,-9.85,48,-50,8
3599,-0.041,0.036,0.092,0.03,-0.01,-9.85,48,-50,8
3600,-0.041,0.097,-0.030,0.03,-0.01,-9.85,50,-58,10
3601,0.020,0.097,0.031,0.03,-0.01,-9.77,50,-58,10
3602,-0.041,-0.025,-0.030,0.03,-0.01,-9.77,52,-52,12
3603,0.020,0.097,0.031,0.03,-0.01,-9.77,52,-52,12
3604,0.020,-0.025,-0.030,0.03,-0.01,-9.77,49,-55,7
3605,0.020,0.036,-0.030,0.03,-0.01,-9.77,49,-55,7
3606,0.020,0.036,-0.030,-0.05,-0.01,-9.77,51,-55,7
3607,0.081,0.036,0.031,-0.05,-0.01,-9.77,51,-55,7
3608,0.081,0.097,0.031,-0.05,-0.01,-9.77,48,-52,8
3609,0.081,-0.025,-0.030,0.03,-0.01,-9.77,48,-52,8
3610,-0.102,-0.086,-0.030,-0.05,-0.01,-9.77,53,-57,11
3611,-0.041,-0.086,0.031,0.03,-0.01,-9.77,53,-57,11
3612,0.142,-0.147,-0.030,-0.05,-0.01,-9.77,50,-54,10
3613,-0.041,-0.025,0.154,-0.05,-0.01,-9.77,50,-54,10
3614,0.020,-0.025,0.031,-0.05,-0.01,-9.77,50,-52,12
3615,0.081,-0.025,-0.030,-0.05,-0.01,-9.77,50,-52,12
3616,0.081,-0.025,-0.030,-0.05,-0.01,-9.77,52,-60,10
3617,0.081,0.036,0.031,-0.05,-0.01,-9.77,52,-60,10
3618,0.081,-0.025,-0.030,-0.05,-0.01,-9.77,49,-57,9
3619,0.081,-0.025,0.031,-0.05,-0.01,-9.77,49,-57,9
3620,-0.041,-0.025,0.031,-0.05,-0.01,-9.77,51,-51,11
3621,0.081,0.036,0.092,-0.05,-0.01,-9.85,51,-51,11
3622,0.020,-0.086,-0.091,-0.05,-0.01,-9.85,51,-55,13
3623,-0.041,-0.025,0.031,0.03,-0.01,-9.77,51,-55,13
3624,0.020,-0.086,-0.030,0.03,-0.01,-9.77,49,-53,3
3625,0.020,-0.025,0.092,0.03,-0.01,-9.77,49,-53,3
3626,0.020,-0.025,-0.030,0.03,-0.01,-9.77,48,-56,10
3627,0.020,-0.086,-0.030,0.03,-0.01,-9.77,48,-56,10
3628,0.020,0.036,0.092,0.03,-0.01,-9.77,50,-54,4
3629,0.081,-0.086,0.031,0.03,-0.01,-9.77,50,-54,4
3630,-0.041,-0.086,-0.030,0.03,-0.01,-9.77,53,-55,11
3631,0.020,-0.025,-0.030,0.03,-0.01,-9.77,53,-55,11
3632,-0.041,-0.025,0.031,0.03,-0.01,-9.85,50,-52,10
3633,-0.041,0.158,-0.030,0.03,-0.01,-9.85,50,-52,10
3634,0.020,0.036,-0.030,0.03,-0.01,-9.85,50,-48,10
3635,-0.102,-0.025,-0.030,0.03,-0.01,-9.77,50,-48,10
3636,-0.102,0.036,-0.030,0.03,-0.01,-9.85,52,-50,10
3637,-0.041,-0.086,-0.030,0.03,-0.01,-9.77,52,-50,10
3638,0.142,-0.086,-0.030,0.03,-0.01,-9.77,48,-54,10
3639,0.020,-0.025,0.092,0.10,-0.01,-9.77,48,-54,10
3640,0.142,0.097,0.031,0.10,-0.01,-9.77,50,-54,8
3641,0.081,0.158,-0.030,0.10,-0.01,-9.77,50,-54,8
3642,-0.041,0.036,-0.030,0.10,-0.01,-9.77,48,-54,10
3643,-0.041,-0.086,0.092,0.10,-0.01,-9.77,48,-54,10
3644,0.020,0.036,0.031,0.03,-0.01,-9.77,50,-54,4
3645,-0.041,0.036,0.031,0.03,-0.01,-9.77,50,-54,4
3646,0.081,0.097,0.031,0.03,-0.01,-9.77,49,-55,9
3647,-0.041,-0.086,0.031,0.03,-0.01,-9.77,49,-55,9
3648,0.081,-0.025,-0.030,0.03,-0.01,-9.77,52,-50,14
3649,-0.041,-0.025,-0.091,0.03,-0.01,-9.77,52,-50,14
3650,0.020,0.036,0.092,0.03,-0.01,-9.77,49,-53,5
3651,0.020,0.036,0.092,0.03,-0.01,-9.77,49,-53,5
3652,0.081,0.036,0.031,0.03,-0.01,-9.77,47,-55,11
3653,-0.041,-0.086,0.031,0.03,-0.01,-9.77,47,-55,11
3654,-0.041,0.036,-0.030,0.03,-0.01,-9.85,53,-53,11
3655,-0.041,0.036,0.031,0.03,-0.01,-9.77,53,-53,11
3656,-0.163,0.036,0.092,0.03,-0.01,-9.77,51,-51,1
3657,0.020,0.036,-0.091,0.03,-0.01,-9.77,51,-51,1
3658,0.020,-0.086,0.031,0.03,-0.01,-9.77,54,-52,8
3659,0.020,0.036,-0.030,-0.05,-0.01,-9.77,54,-52,8
3660,0.020,0.097,-0.030,-0.05,-0.01,-9.77,50,-56,10
3661,-0.041,0.036,0.092,-0.05,-0.01,-9.77,50,-56,10
3662,0.081,-0.025,0.031,-0.05,-0.01,-9.77,49,-55,5
3663,0.020,-0.025,0.031,0.03,-0.01,-9.77,49,-55,5
3664,-0.102,-0.086,-0.030,0.03,-0.01,-9.77,51,-55,11
3665,0.020,-0.086,0.031,0.03,-0.01,-9.77,51,-55,11
3666,0.020,0.036,-0.030,0.03,-0.01,-9.77,48,-52,8
3667,0.020,-0.025,-0.091,0.03,-0.01,-9.77,48,-52,8
3668,0.081,-0.025,-0.030,0.03,-0.01,-9.77,48,-50,12
3669,0.020,0.036,0.031,0.10,-0.01,-9.77,48,-50,12
3670,0.142,-0.086,0.031,0.10,-0.01,-9.77,49,-59,11
3671,-0.041,-0.086,-0.091,0.10,-0.01,-9.77,49,-59,11
3672,0.081,-0.025,-0.030,0.03,-0.01,-9.77,46,-56,10
3673,-0.041,-0.025,0.031,0.03,-0.01,-9.77,46,-56,10
3674,-0.041,-0.025,-0.030,0.03,-0.01,-9.77,50,-52,10
3675,-0.041,0.036,0.092,0.03,-0.01,-9.77,50,-52,10
3676,-0.102,0.097,-0.030,0.03,-0.01,-9.77,47,-53,11
3677,0.020,-0.086,0.031,0.03,-0.01,-9.77,47,-53,11
3678,-0.041,-0.147,0.031,0.03,-0.01,-9.77,50,-56,6
3679,0.020,0.036,-0.152,0.03,-0.01,-9.77,50,-56,6
3680,0.020,-0.086,0.154,0.10,-0.01,-9.85,50,-54,4
3681,0.081,-0.086,-0.030,0.10,-0.01,-9.77,50,-54,4
3682,0.020,-0.025,-0.152,0.10,-0.01,-9.77,53,-53,9
3683,-0.041,0.097,0.031,0.03,-0.01,-9.77,53,-53,9
3684,0.020,-0.025,0.031,0.03,-0.01,-9.77,53,-53,9
3685,-0.041,-0.025,0.031,0.10,-0.01,-9.77,53,-53,9
3686,0.020,-0.086,0.154,0.10,-0.01,-9.77,48,-56,14
3687,-0.102,0.036,-0.030,0.10,-0.01,-9.77,48,-56,14
3688,0.020,-0.025,0.031,0.10,-0.01,-9.77,51,-53,9
3689,0.020,-0.086,0.154,0.03,-0.01,-9.77,51,-53,9
3690,-0.041,-0.025,0.031,0.03,-0.01,-9.85,49,-49,9
3691,0.020,-0.025,0.031,0.03,-0.01,-9.85,49,-49,9
3692,0.020,-0.147,-0.091,0.03,-0.01,-9.77,51,-45,9
3693,-0.102,-0.025,-0.030,0.03,-0.01,-9.85,51,-45,9
3694,0.020,-0.086,0.092,0.03,-0.01,-9.77,52,-56,4
3695,-0.041,0.036,-0.091,0.03,-0.01,-9.77,52,-56,4
3696,-0.041,-0.147,-0.152,0.03,-0.01,-9.77,53,-53,7
3697,-0.102,0.036,0.031,0.03,-0.01,-9.77,53,-53,7
3698,-0.041,0.036,-0.091,0.10,-0.01,-9.77,47,-53,7
3699,0.020,0.036,0.031,0.10,-0.01,-9.77,47,-53,7
3700,-0.041,-0.025,0.092,0.10,-0.01,-9.77,52,-52,10
3701,-0.041,0.036,-0.091,0.10,-0.01,-9.77,52,-52,10
3702,-0.102,0.036,-0.030,0.10,-0.01,-9.77,46,-54,10
3703,-0.041,0.036,-0.030,0.03,-0.01,-9.77,46,-54,10
3704,-0.041,-0.086,-0.030,0.03,-0.01,-9.77,48,-56,14
3705,-0.041,-0.025,-0.030,0.03,-0.01,-9.85,48,-56,14
3706,-0.041,-0.086,-0.091,0.03,-0.01,-9.85,48,-56,6
3707,0.142,0.097,-0.030,0.03,-0.01,-9.85,48,-56,6
3708,-0.041,0.036,-0.030,0.03,-0.01,-9.85,54,-54,10
3709,-0.102,-0.025,-0.030,0.03,-0.01,-9.85,54,-54,10
3710,0.020,-0.025,0.092,0.03,-0.01,-9.77,50,-52,10
3711,0.020,0.158,0.031,0.03,-0.01,-9.77,50,-52,10
3712,-0.041,-0.086,0.031,0.03,-0.01,-9.85,48,-54,8
3713,0.020,-0.086,-0.030,0.03,-0.01,-9.85,48,-54,8
3714,-0.041,-0.086,0.031,0.03,-0.01,-9.77,50,-56,10
3715,0.020,-0.025,0.031,-0.05,-0.01,-9.77,50,-56,10
3716,0.081,0.036,-0.030,-0.05,-0.01,-9.77,49,-55,11
3717,-0.041,0.036,-0.091,-0.05,-0.01,-9.77,49,-55,11
3718,0.020,-0.147,0.031,-0.05,-0.01,-9.77,51,-55,5
3719,0.020,0.036,0.154,-0.05,-0.01,-9.77,51,-55,5
3720,0.020,0.097,0.092,-0.05,-0.01,-9.77,45,-57,5
3721,-0.041,0.036,0.092,0.03,-0.01,-9.77,45,-57,5
3722,-0.102,-0.086,0.031,0.03,-0.01,-9.77,49,-53,9
3723,-0.041,0.097,0.092,0.03,-0.01,-9.77,49,-53,9
3724,0.020,-0.025,0.031,0.03,-0.01,-9.77,49,-57,7
3725,0.020,-0.025,0.031,0.03,-0.01,-9.77,49,-57,7
3726,0.081,0.036,-0.091,0.03,-0.01,-9.85,48,-52,10
3727,0.020,0.036,0.092,0.03,-0.01,-9.85,48,-52,10
3728,-0.102,-0.025,-0.030,-0.05,-0.01,-9.85,52,-50,8
3729,0.081,-0.025,0.031,-0.05,-0.01,-9.85,52,-50,8
3730,-0.041,0.097,-0.030,-0.05,-0.01,-9.85,48,-54,10
3731,0.081,-0.025,-0.030,-0.05,-0.01,-9.85,48,-54,10
3732,0.081,-0.086,-0.030,-0.05,-0.01,-9.85,52,-58,10
3733,0.081,-0.086,-0.030,-0.05,-0.01,-9.85,52,-58,10
3734,-0.041,0.036,-0.091,-0.05,0.07,-9.85,51,-53,13
3735,0.020,0.036,-0.091,-0.05,-0.01,-9.85,51,-53,13
3736,0.020,-0.025,0.031,-0.05,-0.01,-9.85,52,-52,8
3737,0.020,0.036,0.092,0.03,-0.01,-9.77,52,-52,8
3738,-0.041,-0.086,0.092,0.03,-0.01,-9.85,48,-54,6
3739,0.081,0.036,0.031,0.03,-0.01,-9.77,48,-54,6
3740,-0.041,-0.086,-0.030,0.10,-0.01,-9.77,49,-53,13
3741,-0.041,0.158,-0.030,0.10,-0.01,-9.85,49,-53,13
3742,0.020,-0.025,0.031,0.10,-0.01,-9.85,48,-56,8
3743,0.020,0.036,0.031,0.10,-0.01,-9.77,48,-56,8
3744,0.020,-0.025,-0.030,0.10,-0.01,-9.77,52,-50,12
3745,0.081,-0.025,-0.030,0.10,-0.01,-9.85,52,-50,12
3746,0.020,0.097,0.092,0.10,-0.01,-9.85,53,-57,7
3747,0.020,0.158,0.154,0.10,-0.01,-9.85,53,-57,7
3748,0.142,0.036,-0.091,0.10,-0.01,-9.77,50,-54,6
3749,0.142,0.036,-0.030,0.10,-0.01,-9.77,50,-54,6
3750,-0.041,-0.025,-0.091,0.10,-0.01,-9.77,51,-55,11
3751,0.020,-0.086,-0.091,0.10,-0.01,-9.85,51,-55,11
3752,-0.041,-0.086,0.031,0.10,-0.01,-9.85,53,-53,7
3753,0.020,-0.086,-0.030,0.10,-0.01,-9.85,53,-53,7
3754,0.081,-0.147,-0.091,0.03,-0.01,-9.85,50,-52,8
3755,0.020,-0.086,0.031,0.03,-0.01,-9.85,50,-52,8
3756,0.020,-0.025,-0.091,0.10,-0.01,-9.85,52,-54,10
3757,0.020,-0.086,0.031,0.10,-0.01,-9.85,52,-54,10
3758,-0.041,-0.086,-0.030,0.10,-0.01,-9.85,51,-57,11
3759,-0.041,0.097,0.031,0.03,-0.01,-9.85,51,-57,11
3760,0.020,-0.025,0.031,0.03,-0.01,-9.85,53,-51,9
3761,-0.041,0.036,0.031,0.03,-0.01,-9.85,53,-51,9
3762,0.020,0.036,0.031,0.03,-0.01,-9.85,48,-52,6
3763,-0.041,-0.147,0.092,0.03,-0.01,-9.85,48,-52,6
3764,-0.102,-0.025,-0.091,0.03,-0.01,-9.85,47,-53,5
3765,-0.041,-0.025,0.031,0.03,-0.01,-9.85,47,-53,5
3766,-0.041,0.036,-0.030,0.03,-0.01,-9.85,46,-56,10
3767,0.081,-0.025,-0.030,0.03,-0.01,-9.85,46,-56,10
3768,-0.102,-0.025,0.031,0.03,-0.01,-9.85,46,-50,10
3769,0.020,0.036,0.031,0.03,-0.01,-9.77,46,-50,10
3770,-0.102,-0.025,0.092,0.03,-0.01,-9.77,51,-51,7
3771,-0.041,-0.147,-0.030,-0.05,-0.01,-9.77,51,-51,7
3772,-0.102,0.158,0.031,-0.05,0.07,-9.77,51,-55,9
3773,-0.163,-0.025,0.092,-0.05,0.07,-9.77,51,-55,9
3774,0.020,0.036,0.031,0.03,0.07,-9.77,50,-50,10
3775,0.020,-0.025,0.031,-0.05,0.07,-9.85,50,-50,10
3776,0.020,0.036,0.031,-0.05,0.07,-9.85,50,-58,14
3777,0.081,-0.025,-0.091,-0.05,0.07,-9.85,50,-58,14
3778,0.081,-0.025,-0.030,-0.05,0.07,-9.85,52,-52,4
3779,-0.041,-0.025,0.031,-0.05,-0.01,-9.85,52,-52,4
3780,0.081,-0.086,-0.030,-0.05,-0.01,-9.85,46,-54,10
3781,0.020,-0.086,0.031,-0.05,-0.01,-9.85,46,-54,10
3782,0.020,0.036,-0.091,-0.05,-0.01,-9.85,52,-48,6
3783,0.020,-0.086,0.031,-0.05,-0.01,-9.85,52,-48,6
3784,-0.102,-0.025,-0.030,-0.05,-0.01,-9.85,50,-54,6
3785,-0.041,-0.025,-0.030,0.03,-0.01,-9.85,50,-54,6
3786,0.020,-0.086,0.092,0.03,-0.01,-9.77,48,-48,10
3787,-0.041,0.097,-0.030,0.03,-0.01,-9.77,48,-48,10
3788,0.020,0.097,0.031,0.03,-0.01,-9.77,52,-50,8
3789,0.020,-0.025,-0.030,0.10,-0.01,-9.77,52,-50,8
3790,0.081,-0.086,-0.030,0.10,-0.01,-9.77,47,-55,5
3791,0.142,-0.086,0.031,0.03,-0.01,-9.85,47,-55,5
3792,0.081,0.036,-0.030,0.03,-0.01,-9.77,49,-51,11
3793,-0.041,-0.025,0.031,0.03,-0.01,-9.77,49,-51,11
3794,0.020,0.036,-0.030,0.10,-0.01,-9.77,50,-56,8
3795,-0.041,-0.086,-0.091,0.03,-0.01,-9.77,50,-56,8
3796,-0.041,0.036,-0.030,0.03,-0.01,-9.77,51,-51,9
3797,-0.041,-0.025,0.092,0.03,-0.01,-9.77,51,-51,9
3798,-0.041,-0.086,-0.091,0.03,-0.01,-9.77,44,-56,8
3799,0.020,-0.086,-0.030,0.03,-0.01,-9.77,44,-56,8
3800,0.081,0.036,-0.091,0.03,-0.01,-9.77,50,-54,6
3801,0.020,-0.025,0.092,0.03,-0.01,-9.77,50,-54,6
3802,-0.102,0.036,0.031,0.03,-0.01,-9.85,50,-54,8
3803,-0.041,-0.086,0.092,0.03,-0.01,-9.85,50,-54,8
3804,-0.041,-0.086,-0.030,0.03,-0.01,-9.85,51,-53,7
3805,-0.102,-0.086,0.031,-0.05,-0.01,-9.85,51,-53,7
3806,-0.041,0.036,-0.030,-0.05,-0.01,-9.85,53,-55,5
3807,0.020,-0.025,0.031,-0.05,-0.01,-9.85,53,-55,5
3808,0.081,-0.025,0.031,-0.05,-0.01,-9.85,54,-50,8
3809,0.020,-0.147,0.215,0.03,-0.01,-9.85,54,-50,8
3810,-0.041,0.158,0.031,0.03,-0.01,-9.85,51,-55,7
3811,0.081,0.036,0.092,0.03,-0.01,-9.85,51,-55,7
3812,0.020,-0.086,0.031,0.03,-0.01,-9.85,52,-56,8
3813,0.020,-0.025,0.031,0.03,-0.01,-9.85,52,-56,8
3814,-0.041,0.097,-0.030,0.10,-0.01,-9.77,44,-52,6
3815,-0.041,0.036,-0.091,0.03,-0.01,-9.77,44,-52,6
3816,0.142,-0.025,-0.091,0.03,-0.01,-9.77,54,-50,4
3817,0.081,-0.025,-0.030,0.03,-0.01,-9.77,54,-50,4
3818,0.081,-0.147,0.031,0.03,-0.01,-9.77,52,-54,4
3819,-0.041,-0.025,-0.030,0.10,-0.09,-9.77,52,-54,4
3820,0.020,-0.025,0.031,0.10,-0.09,-9.77,49,-55,11
3821,-0.041,0.036,-0.030,0.10,-0.09,-9.77,49,-55,11
3822,-0.041,-0.086,0.031,0.10,-0.09,-9.77,46,-50,6
3823,0.020,0.158,0.092,0.10,-0.09,-9.77,46,-50,6
3824,0.020,-0.086,0.031,0.10,-0.09,-9.77,49,-55,11
3825,0.020,0.036,-0.091,0.10,-0.09,-9.77,49,-55,11
3826,0.020,-0.086,-0.030,0.10,-0.09,-9.77,51,-51,9
3827,0.081,-0.086,-0.030,0.03,-0.09,-9.77,51,-51,9
3828,0.081,-0.086,-0.030,0.03,-0.09,-9.77,46,-58,12
3829,0.020,-0.086,0.031,0.03,-0.09,-9.77,46,-58,12
3830,0.020,0.036,-0.091,-0.05,-0.01,-9.77,50,-54,10
3831,-0.041,-0.086,0.031,-0.05,-0.01,-9.77,50,-54,10
3832,-0.041,-0.025,-0.030,-0.05,-0.01,-9.77,49,-51,11
3833,-0.102,-0.086,-0.091,-0.05,-0.01,-9.85,49,-51,11
3834,0.081,0.036,-0.030,-0.05,-0.01,-9.77,52,-54,8
3835,0.142,0.036,0.031,-0.05,-0.01,-9.77,52,-54,8
3836,0.020,0.097,0.092,-0.05,-0.01,-9.85,48,-56,12
3837,0.020,-0.025,-0.091,0.03,-0.01,-9.85,48,-56,12
3838,-0.041,-0.086,0.092,0.03,-0.01,-9.85,50,-54,4
3839,0.020,-0.086,0.092,0.03,-0.01,-9.85,50,-54,4
3840,0.020,-0.025,-0.091,0.03,-0.01,-9.85,53,-55,5
3841,0.020,0.097,-0.030,0.03,-0.01,-9.85,53,-55,5
3842,0.020,-0.025,-0.030,-0.05,-0.01,-9.85,50,-52,8
3843,-0.102,0.036,-0.030,-0.05,-0.01,-9.85,50,-52,8
3844,-0.163,0.097,0.031,0.03,-0.01,-9.85,51,-59,9
3845,0.020,0.097,0.031,0.03,-0.01,-9.85,51,-59,9
3846,0.081,0.036,0.031,-0.05,-0.01,-9.85,47,-55,7
3847,0.020,-0.025,0.031,-0.05,-0.01,-9.85,47,-55,7
3848,0.020,0.036,-0.030,-0.05,-0.01,-9.85,49,-55,11
3849,-0.041,-0.086,-0.030,-0.05,-0.01,-9.85,49,-55,11
3850,-0.041,-0.025,-0.030,-0.05,-0.01,-9.77,51,-53,7
3851,-0.041,0.036,-0.030,-0.05,-0.01,-9.77,51,-53,7
3852,0.020,-0.086,0.031,-0.05,-0.01,-9.77,52,-52,6
3853,0.020,-0.086,0.031,-0.05,-0.01,-9.77,52,-52,6
3854,-0.041,-0.086,-0.030,-0.05,-0.01,-9.77,48,-54,8
3855,-0.041,0.036,-0.030,-0.05,-0.01,-9.77,48,-54,8
3856,0.142,-0.086,-0.030,-0.05,-0.01,-9.77,48,-54,4
3857,-0.041,-0.025,0.092,-0.05,-0.01,-9.77,48,-54,4
3858,0.020,-0.025,0.092,0.03,-0.01,-9.77,50,-54,6
3859,-0.041,-0.025,-0.030,0.03,-0.01,-9.77,50,-54,6
3860,-0.041,-0.086,0.031,0.03,-0.01,-9.85,48,-54,10
3861,0.142,0.036,-0.091,0.03,-0.01,-9.85,48,-54,10
3862,-0.041,0.036,-0.030,0.03,-0.01,-9.85,53,-53,5
3863,0.020,-0.086,0.031,0.03,-0.01,-9.85,53,-53,5
3864,0.020,-0.025,-0.091,0.03,-0.01,-9.85,53,-55,9
3865,-0.041,0.036,0.092,0.03,-0.01,-9.85,53,-55,9
3866,-0.041,-0.147,-0.030,0.03,-0.01,-9.85,51,-57,7
3867,-0.041,-0.086,-0.030,0.03,-0.01,-9.85,51,-57,7
3868,0.020,0.097,-0.030,0.03,-0.01,-9.85,51,-53,3
3869,0.020,0.097,-0.030,0.03,-0.01,-9.85,51,-53,3
3870,-0.102,0.036,-0.030,0.03,-0.01,-9.85,50,-50,8
3871,-0.041,-0.025,-0.091,0.03,-0.01,-9.85,50,-50,8
3872,-0.041,0.036,-0.030,0.03,-0.01,-9.77,51,-59,9
3873,-0.102,-0.147,-0.030,0.03,-0.01,-9.77,51,-59,9
3874,-0.041,0.036,0.092,0.03,-0.01,-9.77,51,-49,7
3875,0.020,-0.147,-0.030,0.03,-0.01,-9.77,51,-49,7
3876,0.020,-0.025,-0.030,0.03,-0.01,-9.77,49,-53,11
3877,0.020,-0.086,0.031,0.03,-0.01,-9.77,49,-53,11
3878,0.142,-0.147,0.031,0.03,-0.01,-9.77,48,-54,12
3879,-0.041,-0.025,0.031,0.03,-0.01,-9.77,48,-54,12
3880,0.020,0.036,-0.030,0.03,-0.01,-9.77,49,-49,9
3881,-0.041,-0.147,0.031,0.10,-0.01,-9.77,49,-49,9
3882,0.020,-0.025,-0.030,0.03,-0.01,-9.77,54,-58,12
3883,0.020,0.036,0.092,0.10,-0.01,-9.77,54,-58,12
3884,-0.041,0.097,0.092,0.10,-0.01,-9.77,50,-52,10
3885,-0.041,-0.086,-0.152,0.10,-0.01,-9.77,50,-52,10
3886,-0.102,0.036,-0.030,0.03,-0.01,-9.77,55,-51,7
3887,0.081,-0.025,-0.091,0.03,-0.01,-9.77,55,-51,7
3888,-0.041,0.097,0.092,0.03,-0.01,-9.77,49,-55,11
3889,-0.041,-0.025,-0.091,0.10,-0.01,-9.77,49,-55,11
3890,-0.102,-0.086,0.031,0.03,-0.01,-9.77,47,-55,9
3891,-0.041,-0.025,0.031,0.10,-0.01,-9.77,47,-55,9
3892,-0.041,-0.025,0.031,0.10,-0.01,-9.77,49,-53,11
3893,-0.102,-0.025,0.031,0.03,-0.01,-9.85,49,-53,11
3894,0.020,0.036,0.031,0.03,-0.01,-9.85,49,-49,7
3895,0.020,-0.025,0.031,0.03,-0.01,-9.85,49,-49,7
3896,0.081,-0.086,0.031,0.03,-0.01,-9.85,50,-54,6
3897,-0.041,0.036,0.092,0.03,-0.01,-9.85,50,-54,6
3898,0.020,0.036,-0.030,0.03,-0.01,-9.85,47,-59,7
3899,-0.041,-0.086,0.031,0.03,-0.01,-9.85,47,-59,7
3900,-0.041,-0.086,-0.091,0.03,-0.01,-9.85,46,-52,12
3901,-0.041,-0.025,0.154,0.03,-0.01,-9.85,46,-52,12
3902,0.020,0.097,-0.030,0.03,-0.01,-9.85,48,-52,2
3903,0.020,0.036,-0.091,0.03,-0.01,-9.85,48,-52,2
3904,0.020,-0.147,-0.030,0.03,-0.01,-9.77,56,-56,8
3905,0.020,0.097,-0.152,0.03,-0.01,-9.77,56,-56,8
3906,0.081,0.036,0.031,0.03,-0.01,-9.85,50,-48,12
3907,0.020,0.036,-0.091,0.03,-0.01,-9.77,50,-48,12
3908,0.020,-0.025,-0.030,0.03,-0.01,-9.85,44,-56,8
3909,-0.163,0.036,-0.091,0.03,-0.09,-9.85,44,-56,8
3910,-0.041,-0.025,-0.091,0.03,-0.01,-9.85,52,-48,10
3911,-0.041,-0.025,0.031,0.10,-0.01,-9.85,52,-48,10
3912,0.020,-0.025,-0.091,0.10,-0.01,-9.85,48,-48,10
3913,-0.041,0.036,-0.030,0.10,-0.09,-9.85,48,-48,10
3914,-0.041,0.097,-0.091,0.10,-0.09,-9.85,51,-57,13
3915,-0.041,-0.086,-0.030,0.10,-0.01,-9.85,51,-57,13
3916,-0.102,0.097,-0.030,0.10,-0.01,-9.85,53,-59,11
3917,-0.163,0.036,-0.091,0.10,-0.01,-9.77,53,-59,11
3918,0.020,-0.086,-0.030,0.10,-0.01,-9.77,54,-50,10
3919,-0.041,0.036,-0.030,0.10,-0.01,-9.77,54,-50,10
3920,-0.041,-0.086,0.031,0.10,-0.01,-9.77,47,-57,9
3921,0.020,-0.025,-0.030,0.03,-0.01,-9.77,47,-57,9
3922,-0.102,-0.025,-0.091,0.03,-0.01,-9.77,48,-50,12
3923,0.020,-0.025,-0.030,0.03,-0.01,-9.77,48,-50,12
3924,-0.041,-0.025,-0.030,0.03,-0.01,-9.77,52,-54,8
3925,0.142,0.036,-0.091,0.03,-0.01,-9.77,52,-54,8
3926,0.142,0.097,0.092,-0.05,-0.01,-9.77,47,-51,7
3927,-0.041,0.036,-0.030,-0.05,-0.01,-9.77,47,-51,7
3928,-0.041,-0.025,0.031,-0.05,-0.01,-9.77,50,-50,8
3929,-0.041,-0.025,-0.030,0.03,-0.01,-9.77,50,-50,8
3930,-0.041,-0.025,-0.091,0.03,-0.01,-9.77,51,-53,9
3931,-0.041,0.158,0.031,0.03,-0.01,-9.85,51,-53,9
3932,0.081,0.097,0.154,0.03,-0.01,-9.85,52,-52,12
3933,-0.041,0.036,-0.030,0.03,-0.01,-9.85,52,-52,12
3934,0.020,0.036,-0.030,0.03,-0.01,-9.85,52,-56,12
3935,0.020,0.097,-0.030,0.03,-0.01,-9.85,52,-56,12
3936,0.081,-0.025,0.031,0.03,-0.01,-9.77,50,-54,10
3937,0.081,-0.025,-0.030,0.03,-0.01,-9.85,50,-54,10
3938,0.020,-0.025,-0.030,0.03,-0.01,-9.85,54,-54,8
3939,0.020,-0.025,-0.030,0.03,-0.01,-9.85,54,-54,8
3940,0.020,-0.025,0.031,0.03,-0.01,-9.85,51,-57,9
3941,0.020,0.036,-0.091,0.03,-0.01,-9.85,51,-57,9
3942,0.020,0.036,0.092,0.03,-0.01,-9.85,52,-54,8
3943,-0.041,-0.147,0.031,0.03,-0.09,-9.85,52,-54,8
3944,-0.041,0.036,0.092,0.03,-0.01,-9.85,47,-55,11
3945,-0.041,0.036,-0.030,0.03,-0.01,-9.85,47,-55,11
3946,0.020,-0.025,-0.091,0.03,-0.01,-9.85,53,-55,11
3947,0.020,0.158,0.031,0.03,-0.01,-9.77,53,-55,11
3948,0.020,0.036,0.092,0.03,-0.01,-9.85,50,-52,10
3949,0.020,0.158,-0.030,0.03,-0.01,-9.77,50,-52,10
3950,-0.041,-0.025,0.031,0.03,-0.01,-9.77,51,-53,9
3951,0.081,-0.086,0.215,0.03,-0.01,-9.77,51,-53,9
3952,0.020,0.036,0.031,0.03,-0.01,-9.77,50,-52,6
3953,0.020,0.097,-0.030,0.03,-0.01,-9.77,50,-52,6
3954,0.020,-0.025,-0.030,0.03,-0.01,-9.77,49,-57,11
3955,-0.041,-0.025,0.031,0.03,-0.01,-9.77,49,-57,11
3956,-0.041,0.097,-0.030,0.03,-0.01,-9.77,49,-53,5
3957,-0.041,0.036,0.031,0.03,-0.01,-9.77,49,-53,5
3958,0.020,0.036,0.031,0.03,-0.01,-9.77,52,-46,6
3959,0.020,-0.025,0.031,0.03,-0.01,-9.77,52,-46,6
3960,-0.041,0.158,-0.030,0.03,-0.01,-9.77,55,-53,9
3961,0.020,0.097,0.092,0.03,-0.01,-9.77,55,-53,9
3962,-0.041,-0.086,0.031,0.10,-0.01,-9.77,53,-53,9
3963,0.020,-0.025,0.031,0.10,-0.01,-9.77,53,-53,9
3964,-0.041,0.036,0.031,0.10,-0.01,-9.77,48,-52,6
3965,0.081,-0.147,0.031,0.10,-0.01,-9.77,48,-52,6
3966,-0.041,0.036,0.031,0.10,-0.01,-9.77,54,-46,10
3967,0.020,-0.086,0.031,0.10,-0.01,-9.77,54,-46,10
3968,-0.041,0.158,-0.030,0.03,-0.01,-9.77,52,-50,10
3969,0.020,-0.147,-0.030,0.03,-0.01,-9.77,52,-50,10
3970,0.020,0.097,0.031,0.03,-0.01,-9.77,50,-52,6
3971,0.020,-0.025,-0.030,0.03,-0.01,-9.77,50,-52,6
3972,0.020,-0.025,-0.091,0.03,-0.01,-9.77,51,-53,9
3973,0.081,-0.025,-0.030,0.03,-0.01,-9.77,51,-53,9
3974,0.020,0.036,0.092,0.03,-0.01,-9.77,56,-52,6
3975,-0.041,-0.086,0.031,0.03,-0.01,-9.77,56,-52,6
3976,-0.041,-0.086,0.154,0.10,-0.01,-9.77,46,-54,14
3977,0.020,-0.025,-0.091,0.10,-0.01,-9.77,46,-54,14
3978,-0.041,0.036,0.031,0.10,-0.01,-9.77,53,-55,9
3979,0.081,0.036,-0.030,0.03,-0.01,-9.77,53,-55,9
3980,-0.041,-0.025,-0.030,0.03,-0.01,-9.77,53,-55,9
3981,0.020,0.036,0.031,0.03,-0.01,-9.85,53,-55,9
3982,0.081,0.036,-0.030,0.03,-0.01,-9.85,49,-55,11
3983,0.020,-0.086,0.092,0.03,-0.01,-9.85,49,-55,11
3984,0.020,-0.025,-0.030,0.03,-0.01,-9.85,46,-58,10
3985,-0.041,-0.086,-0.091,0.03,-0.01,-9.85,46,-58,10
3986,0.020,0.036,0.031,0.03,-0.01,-9.85,56,-56,4
3987,0.142,-0.086,0.092,0.03,-0.01,-9.85,56,-56,4
3988,-0.041,0.036,-0.030,0.03,-0.01,-9.85,47,-57,7
3989,-0.041,0.097,0.031,0.03,-0.01,-9.77,47,-57,7
3990,0.081,-0.147,0.031,0.03,-0.01,-9.77,49,-57,11
3991,-0.041,-0.025,-0.030,0.03,-0.01,-9.77,49,-57,11
3992,0.020,-0.025,-0.030,0.03,-0.01,-9.77,46,-50,8
3993,0.142,-0.025,0.092,0.03,-0.01,-9.77,46,-50,8
3994,0.020,0.158,0.031,0.03,-0.01,-9.77,49,-57,15
3995,0.020,0.097,0.092,-0.05,-0.01,-9.77,49,-57,15
3996,-0.041,0.158,0.092,0.03,-0.01,-9.77,52,-52,8
3997,-0.041,-0.025,0.031,0.03,-0.01,-9.77,52,-52,8
3998,0.142,-0.086,-0.091,0.03,-0.01,-9.77,56,-54,10
3999,0.081,0.097,0.031,0.03,-0.01,-9.77,56,-54,10
4000,-0.041,0.036,0.031,0.03,-0.01,-9.77,48,-54,12
4001,-0.041,0.097,-0.030,0.03,-0.01,-9.85,48,-54,12
4002,0.020,0.036,0.031,0.03,-0.01,-9.85,52,-56,10
4003,0.020,-0.025,-0.152,0.03,-0.01,-9.85,52,-56,10
4004,0.020,-0.025,0.092,0.03,-0.01,-9.85,53,-49,9
4005,0.020,0.036,-0.030,0.03,-0.01,-9.85,53,-49,9
4006,0.081,-0.025,0.031,0.03,-0.01,-9.85,46,-52,6
4007,0.081,-0.147,0.031,0.03,-0.01,-9.77,46,-52,6
4008,-0.041,-0.086,0.092,0.03,-0.01,-9.85,44,-50,4
4009,0.020,-0.086,0.031,0.03,-0.01,-9.77,44,-50,4
4010,0.020,-0.025,0.031,0.03,-0.01,-9.77,50,-58,10
4011,-0.041,-0.025,0.031,0.03,-0.01,-9.85,50,-58,10
4012,0.081,-0.025,-0.030,0.03,-0.01,-9.85,51,-53,9
4013,0.081,0.036,-0.091,0.03,-0.01,-9.85,51,-53,9
4014,-0.041,0.097,-0.030,-0.05,-0.01,-9.77,54,-50,4
4015,0.020,-0.086,-0.030,-0.05,-0.01,-9.85,54,-50,4
4016,0.020,0.036,-0.030,0.03,-0.01,-9.85,53,-53,7
4017,-0.041,0.036,0.031,0.03,-0.01,-9.85,53,-53,7
4018,0.020,-0.086,-0.030,0.03,-0.01,-9.85,53,-47,13
4019,0.020,-0.086,0.031,0.03,-0.01,-9.77,53,-47,13
4020,0.020,-0.025,-0.030,0.03,-0.01,-9.77,52,-52,6
4021,0.020,-0.086,0.031,0.03,-0.01,-9.77,52,-52,6
4022,0.020,-0.025,-0.030,0.03,-0.01,-9.77,51,-55,11
4023,-0.041,-0.147,-0.030,0.03,-0.01,-9.77,51,-55,11
4024,0.020,0.036,0.031,0.10,-0.01,-9.77,52,-52,8
4025,0.020,-0.086,0.031,0.10,-0.09,-9.77,52,-52,8
4026,-0.041,-0.147,-0.152,0.10,-0.09,-9.77,50,-56,8
4027,-0.041,0.036,-0.030,0.10,-0.01,-9.77,50,-56,8
4028,0.020,-0.025,0.031,0.10,-0.01,-9.85,48,-52,6
4029,-0.041,0.036,-0.091,0.10,-0.01,-9.85,48,-52,6
4030,-0.163,-0.086,0.092,0.10,-0.01,-9.85,50,-50,10
4031,0.020,-0.086,-0.030,0.03,-0.01,-9.85,50,-50,10
4032,0.020,-0.025,0.092,0.03,-0.01,-9.85,45,-61,3
4033,0.020,0.036,0.031,0.10,-0.01,-9.85,45,-61,3
4034,0.020,-0.025,-0.030,0.10,-0.09,-9.77,52,-54,6
4035,0.081,-0.025,0.031,0.03,-0.01,-9.77,52,-54,6
4036,0.081,-0.086,0.092,0.10,-0.01,-9.85,47,-51,11
4037,0.020,0.036,0.031,0.03,-0.01,-9.85,47,-51,11
4038,0.020,-0.025,-0.091,0.03,-0.01,-9.85,46,-50,6
4039,0.081,-0.025,0.031,0.03,-0.01,-9.77,46,-50,6
4040,0.020,-0.025,0.031,0.03,-0.01,-9.85,49,-51,7
4041,0.081,0.036,-0.030,0.03,-0.01,-9.85,49,-51,7
4042,-0.041,-0.147,0.092,0.03,0.07,-9.85,50,-54,6
4043,0.020,-0.147,-0.091,0.03,0.07,-9.85,50,-54,6
4044,0.020,0.036,-0.091,0.03,-0.01,-9.85,47,-53,3
4045,-0.041,-0.025,0.031,0.03,-0.01,-9.85,47,-53,3
4046,-0.041,-0.025,-0.030,0.10,-0.01,-9.85,49,-53,1
4047,0.081,0.036,-0.030,0.10,-0.01,-9.85,49,-53,1
4048,-0.041,-0.025,-0.030,0.10,-0.01,-9.85,51,-57,7
4049,0.020,-0.025,-0.091,0.10,-0.01,-9.77,51,-57,7
4050,0.020,0.036,-0.091,0.10,-0.09,-9.77,48,-54,10
4051,0.020,-0.086,-0.030,0.10,-0.09,-9.77,48,-54,10
4052,0.020,-0.086,-0.091,0.10,-0.09,-9.77,55,-49,9
4053,0.020,0.036,0.031,0.03,-0.01,-9.77,55,-49,9
4054,0.081,-0.147,0.031,0.03,-0.01,-9.77,48,-54,6
4055,0.081,0.036,0.031,0.03,-0.01,-9.77,48,-54,6
4056,0.020,0.036,0.031,0.03,-0.01,-9.77,50,-54,10
4057,-0.041,0.036,-0.030,0.03,-0.01,-9.77,50,-54,10
4058,-0.041,-0.025,-0.091,0.10,-0.01,-9.77,56,-52,12
4059,0.081,-0.025,-0.030,0.10,-0.01,-9.77,56,-52,12
4060,0.020,-0.147,0.031,0.10,-0.01,-9.77,50,-60,12
4061,0.081,-0.086,0.092,0.10,-0.01,-9.77,50,-60,12
4062,0.081,0.097,0.031,0.10,-0.01,-9.77,48,-54,8
4063,-0.102,-0.025,-0.091,0.10,-0.01,-9.77,48,-54,8
4064,0.081,0.036,-0.030,0.10,-0.01,-9.77,49,-59,9
4065,0.081,-0.086,-0.030,0.10,-0.01,-9.85,49,-59,9
4066,0.020,-0.025,-0.030,0.10,-0.01,-9.77,52,-52,10
4067,0.020,0.036,0.031,0.10,-0.01,-9.85,52,-52,10
4068,-0.041,0.097,-0.030,0.10,-0.01,-9.77,55,-53,3
4069,-0.041,-0.025,0.031,0.10,-0.01,-9.77,55,-53,3
4070,0.020,0.097,0.031,0.10,-0.01,-9.77,51,-57,15
4071,0.081,-0.025,0.031,0.10,-0.01,-9.77,51,-57,15
4072,-0.041,-0.086,-0.030,0.10,-0.01,-9.77,57,-51,9
4073,0.081,0.097,-0.091,0.10,-0.01,-9.77,57,-51,9
4074,0.081,-0.025,0.031,0.10,-0.01,-9.77,49,-55,7
4075,0.020,0.097,0.092,0.10,-0.01,-9.77,49,-55,7
4076,0.081,0.036,-0.030,0.10,-0.01,-9.77,51,-51,7
4077,-0.041,0.036,-0.030,0.10,0.07,-9.77,51,-51,7
4078,0.081,-0.025,0.031,0.10,-0.01,-9.77,48,-52,10
4079,0.020,0.158,0.092,0.03,-0.01,-9.77,48,-52,10
4080,0.081,-0.086,0.031,0.03,-0.01,-9.77,48,-56,8
4081,-0.041,-0.147,0.031,0.03,-0.01,-9.85,48,-56,8
4082,-0.041,-0.025,0.031,0.03,-0.01,-9.85,53,-53,9
4083,0.020,-0.025,0.092,0.03,-0.01,-9.85,53,-53,9
4084,0.020,-0.025,-0.091,0.03,-0.01,-9.85,51,-55,9
4085,0.020,-0.086,0.092,0.03,-0.01,-9.85,51,-55,9
4086,0.020,-0.025,0.031,0.10,-0.01,-9.85,52,-50,6
4087,0.081,-0.086,0.092,0.03,-0.01,-9.85,52,-50,6
4088,0.020,-0.025,-0.030,0.10,-0.01,-9.85,44,-54,14
4089,-0.041,-0.025,-0.030,0.10,-0.01,-9.85,44,-54,14
4090,0.081,0.036,0.031,0.10,-0.01,-9.85,50,-52,12
4091,0.081,-0.025,0.092,0.10,-0.01,-9.85,50,-52,12
4092,0.081,0.036,0.031,0.10,-0.01,-9.85,50,-50,14
4093,0.081,0.036,0.031,0.10,-0.01,-9.77,50,-50,14
4094,-0.041,-0.086,-0.030,0.03,-0.01,-9.85,55,-53,9
4095,0.081,-0.025,0.031,0.03,-0.01,-9.85,55,-53,9
4096,0.020,-0.086,-0.030,0.10,-0.01,-9.85,47,-55,9
4097,-0.041,-0.086,0.092,0.03,-0.01,-9.85,47,-55,9
4098,0.020,-0.025,0.031,0.10,-0.01,-9.85,46,-56,10
4099,-0.102,-0.025,0.031,0.10,-0.01,-9.85,46,-56,10
4100,0.020,0.036,-0.030,0.10,-0.01,-9.85,48,-58,6
4101,-0.102,0.097,0.031,0.10,-0.01,-9.85,48,-58,6
4102,-0.041,-0.086,-0.030,0.10,-0.01,-9.77,46,-52,8
4103,0.081,-0.025,0.031,0.10,-0.01,-9.77,46,-52,8
4104,0.020,-0.025,0.031,0.10,-0.01,-9.77,45,-51,5
4105,0.081,-0.086,0.092,0.18,-0.01,-9.77,45,-51,5
4106,0.020,0.036,0.092,0.18,-0.01,-9.77,50,-50,6
4107,0.081,0.097,-0.091,0.10,-0.01,-9.77,50,-50,6
4108,0.020,0.158,-0.091,0.10,-0.01,-9.77,51,-53,9
4109,0.020,-0.025,0.031,0.10,-0.01,-9.85,51,-53,9
4110,-0.041,0.097,-0.091,0.10,-0.01,-9.85,49,-57,13
4111,0.020,0.036,-0.030,0.10,-0.01,-9.85,49,-57,13
4112,-0.102,-0.086,0.092,0.10,-0.01,-9.85,52,-54,6
4113,-0.041,0.097,0.031,0.10,-0.01,-9.85,52,-54,6
4114,-0.041,0.036,-0.091,0.10,-0.01,-9.85,49,-51,11
4115,0.081,-0.025,0.031,0.10,-0.01,-9.85,49,-51,11
4116,0.081,0.097,0.031,0.10,-0.01,-9.77,46,-54,6
4117,-0.041,0.036,0.031,0.10,-0.01,-9.77,46,-54,6
4118,-0.041,-0.025,0.031,0.10,-0.01,-9.77,52,-52,10
4119,0.081,-0.025,0.031,0.10,-0.01,-9.85,52,-52,10
4120,0.020,-0.086,-0.030,0.10,-0.01,-9.85,47,-51,15
4121,0.081,0.036,0.031,0.10,-0.01,-9.77,47,-51,15
4122,0.020,0.036,-0.030,0.03,-0.01,-9.77,50,-56,10
4123,0.020,0.036,0.092,0.10,-0.01,-9.77,50,-56,10
4124,-0.041,0.036,-0.030,0.10,-0.01,-9.77,53,-55,13
4125,0.020,-0.025,-0.030,0.10,-0.01,-9.77,53,-55,13
4126,0.020,-0.086,0.092,0.10,-0.01,-9.77,53,-53,5
4127,0.081,-0.025,0.031,0.10,-0.01,-9.77,53,-53,5
4128,0.020,-0.086,-0.030,0.10,-0.01,-9.77,47,-53,7
4129,0.020,-0.025,0.031,0.10,-0.01,-9.77,47,-53,7
4130,0.020,-0.086,0.031,0.03,-0.01,-9.77,53,-57,7
4131,-0.041,-0.086,-0.030,0.10,-0.01,-9.77,53,-57,7
4132,0.020,0.158,-0.030,0.10,-0.01,-9.77,53,-49,9
4133,0.081,0.036,-0.030,0.10,-0.01,-9.77,53,-49,9
4134,0.020,-0.147,0.031,0.03,-0.01,-9.85,50,-54,8
4135,0.020,0.036,-0.030,0.03,-0.01,-9.85,50,-54,8
4136,0.020,0.036,-0.030,0.03,-0.01,-9.85,51,-51,7
4137,0.020,-0.147,0.031,0.03,-0.01,-9.85,51,-51,7
4138,-0.041,-0.086,-0.030,0.03,-0.01,-9.85,50,-56,6
4139,-0.041,-0.025,0.031,0.03,-0.01,-9.77,50,-56,6
4140,0.081,0.036,0.031,0.03,-0.01,-9.77,53,-53,3
4141,0.020,0.036,-0.030,0.03,-0.01,-9.77,53,-53,3
4142,-0.041,-0.025,-0.030,0.03,-0.01,-9.77,47,-51,11
4143,0.020,0.036,-0.030,0.03,-0.01,-9.77,47,-51,11
4144,0.020,0.036,0.031,0.03,-0.01,-9.77,49,-53,15
4145,0.142,-0.025,-0.030,0.03,-0.01,-9.77,49,-53,15
4146,-0.041,0.036,-0.030,0.10,-0.01,-9.77,51,-59,9
4147,0.020,0.036,-0.030,0.10,-0.01,-9.77,51,-59,9
4148,0.020,0.097,-0.030,0.10,-0.01,-9.77,49,-51,7
4149,0.081,-0.025,0.031,0.10,-0.01,-9.77,49,-51,7
4150,0.020,0.036,0.031,0.10,-0.01,-9.77,46,-54,10
4151,-0.041,0.158,-0.091,0.10,-0.01,-9.77,46,-54,10
4152,-0.102,-0.208,0.092,0.10,-0.01,-9.77,58,-56,16
4153,-0.163,-0.147,0.092,0.03,-0.01,-9.77,58,-56,16
4154,-0.041,-0.025,-0.091,0.03,-0.01,-9.77,48,-52,10
4155,-0.041,-0.086,-0.091,0.03,-0.01,-9.77,48,-52,10
4156,-0.102,-0.147,0.031,0.03,-0.01,-9.77,51,-53,11
4157,-0.041,-0.025,0.092,0.03,-0.01,-9.77,51,-53,11
4158,-0.041,-0.025,-0.030,0.03,-0.01,-9.77,53,-51,11
4159,-0.041,0.036,-0.030,0.10,-0.01,-9.77,53,-51,11
4160,0.081,0.036,0.092,0.10,-0.01,-9.77,50,-52,6
4161,-0.041,0.036,-0.030,0.10,-0.01,-9.77,50,-52,6
4162,0.081,0.097,-0.030,0.10,-0.01,-9.77,51,-53,9
4163,-0.102,-0.086,-0.091,0.10,-0.01,-9.77,51,-53,9
4164,0.020,-0.025,0.092,0.10,-0.09,-9.77,54,-52,10
4165,0.020,-0.086,0.092,0.03,-0.09,-9.77,54,-52,10
4166,0.020,-0.086,0.092,0.03,-0.09,-9.77,50,-54,16
4167,0.020,0.097,0.031,0.03,-0.09,-9.77,50,-54,16
4168,0.081,-0.025,-0.030,0.03,-0.01,-9.77,53,-49,9
4169,0.020,-0.147,-0.091,0.03,-0.01,-9.77,53,-49,9
4170,0.081,0.036,-0.152,0.03,-0.01,-9.77,48,-56,10
4171,-0.041,-0.025,0.031,0.03,-0.01,-9.77,48,-56,10
4172,-0.041,-0.147,0.031,0.03,-0.09,-9.85,48,-54,8
4173,0.020,-0.086,0.092,0.10,-0.01,-9.85,48,-54,8
4174,-0.041,-0.025,0.031,0.10,-0.01,-9.85,50,-52,8
4175,-0.041,-0.025,0.031,0.10,-0.01,-9.85,50,-52,8
4176,0.081,-0.025,-0.091,0.10,-0.01,-9.85,51,-53,5
4177,-0.102,-0.025,-0.030,0.10,-0.01,-9.85,51,-53,5
4178,0.081,0.097,-0.030,0.10,-0.01,-9.85,51,-49,7
4179,0.020,-0.025,-0.030,0.10,-0.01,-9.85,51,-49,7
4180,-0.102,0.036,0.031,0.10,-0.01,-9.77,52,-56,4
4181,0.020,0.036,0.031,0.10,-0.01,-9.77,52,-56,4
4182,0.081,0.036,0.031,0.10,-0.01,-9.85,52,-48,10
4183,0.020,-0.025,-0.091,0.10,-0.01,-9.85,52,-48,10
4184,0.081,-0.025,0.031,0.03,-0.01,-9.85,51,-55,5
4185,0.020,0.036,-0.091,0.03,-0.01,-9.77,51,-55,5
4186,-0.041,-0.086,0.031,0.03,-0.01,-9.85,55,-51,9
4187,-0.102,0.097,0.031,0.10,-0.09,-9.85,55,-51,9
4188,0.020,-0.025,0.092,0.10,-0.01,-9.85,49,-53,13
4189,0.020,-0.025,-0.030,0.10,-0.01,-9.85,49,-53,13
4190,0.020,0.097,0.031,0.10,-0.01,-9.85,48,-54,10
4191,0.020,-0.025,-0.091,0.10,-0.01,-9.85,48,-54,10
4192,0.020,0.219,0.031,0.10,-0.01,-9.77,55,-57,7
4193,-0.041,0.097,-0.030,0.10,-0.01,-9.85,55,-57,7
4194,-0.041,0.036,0.154,0.10,-0.01,-9.85,50,-54,4
4195,0.020,0.036,0.031,0.10,-0.01,-9.85,50,-54,4
4196,0.020,0.036,-0.030,0.10,-0.01,-9.85,52,-52,6
4197,0.142,0.097,0.092,0.03,-0.01,-9.85,52,-52,6
4198,0.020,-0.025,0.031,0.03,-0.01,-9.77,55,-57,11
4199,0.081,-0.025,-0.030,0.03,-0.01,-9.85,55,-57,11
4200,0.020,-0.025,0.031,0.03,-0.01,-9.85,54,-50,14
4201,0.020,-0.025,-0.030,0.03,-0.01,-9.85,54,-50,14
4202,0.020,-0.025,0.031,0.03,-0.01,-9.77,45,-63,9
4203,-0.041,-0.025,0.031,0.03,-0.01,-9.77,45,-63,9
4204,-0.102,-0.025,-0.030,0.03,-0.01,-9.77,50,-46,10
4205,0.020,-0.086,-0.030,0.03,-0.01,-9.77,50,-46,10
4206,0.081,-0.086,-0.091,0.10,-0.01,-9.77,50,-56,10
4207,0.081,0.097,0.031,0.10,-0.01,-9.77,50,-56,10
4208,0.020,-0.025,-0.030,0.10,-0.01,-9.77,51,-51,11
4209,-0.102,-0.086,0.031,0.10,-0.01,-9.77,51,-51,11
4210,-0.041,-0.086,0.031,0.10,-0.01,-9.77,49,-53,5
4211,0.020,-0.086,-0.030,0.10,-0.01,-9.85,49,-53,5
4212,-0.041,-0.025,0.031,0.10,-0.01,-9.85,47,-51,9
4213,0.081,-0.025,0.092,0.03,-0.01,-9.85,47,-51,9
4214,0.020,-0.025,-0.091,0.10,-0.09,-9.85,50,-52,12
4215,-0.041,0.036,-0.030,0.10,-0.09,-9.85,50,-52,12
4216,0.020,0.097,-0.030,0.10,-0.09,-9.85,50,-52,12
4217,0.081,0.036,0.031,0.10,-0.09,-9.77,50,-52,12
4218,-0.041,0.036,0.092,0.10,-0.09,-9.77,51,-49,7
4219,-0.041,-0.147,-0.030,0.10,-0.01,-9.77,51,-49,7
4220,0.081,0.097,-0.030,0.10,-0.09,-9.77,45,-53,9
4221,-0.102,-0.086,-0.091,0.10,-0.09,-9.77,45,-53,9
4222,0.020,-0.025,0.031,0.10,-0.09,-9.77,51,-53,9
4223,-0.102,0.097,0.092,0.10,-0.01,-9.77,51,-53,9
4224,0.081,0.097,0.031,0.10,-0.01,-9.77,50,-46,6
4225,-0.041,0.036,0.092,0.10,-0.01,-9.77,50,-46,6
4226,-0.102,-0.086,-0.091,0.10,-0.01,-9.77,50,-50,10
4227,0.081,-0.025,0.031,0.10,-0.01,-9.77,50,-50,10
4228,0.020,0.036,0.031,0.10,-0.09,-9.77,45,-53,7
4229,-0.041,0.036,-0.030,0.10,-0.01,-9.77,45,-53,7
4230,0.020,-0.025,0.031,0.03,-0.01,-9.85,50,-52,14
4231,0.081,-0.025,-0.030,0.03,-0.01,-9.85,50,-52,14
4232,-0.102,-0.086,-0.030,0.03,-0.01,-9.85,45,-53,11
4233,-0.041,-0.086,-0.030,0.03,-0.01,-9.85,45,-53,11
4234,-0.041,0.036,0.031,0.03,-0.01,-9.85,47,-59,11
4235,-0.041,-0.025,0.031,0.10,-0.01,-9.85,47,-59,11
4236,0.020,-0.025,0.031,0.10,-0.01,-9.85,53,-51,5
4237,0.020,0.036,-0.030,0.10,-0.01,-9.85,53,-51,5
4238,0.020,-0.025,-0.030,0.10,-0.01,-9.85,49,-53,3
4239,0.081,0.036,-0.030,0.10,-0.01,-9.77,49,-53,3
4240,-0.041,0.158,0.092,0.10,-0.09,-9.77,50,-56,12
4241,-0.102,-0.025,-0.030,0.10,-0.01,-9.77,50,-56,12
4242,0.020,0.036,-0.030,0.10,-0.01,-9.77,48,-58,10
4243,0.020,0.036,0.154,0.10,-0.01,-9.77,48,-58,10
4244,0.020,0.036,0.031,0.10,-0.01,-9.77,54,-52,10
4245,-0.041,-0.025,-0.091,0.10,-0.01,-9.85,54,-52,10
4246,-0.102,0.036,-0.152,0.10,-0.01,-9.85,51,-53,13
4247,0.020,-0.025,-0.091,0.10,-0.01,-9.85,51,-53,13
4248,-0.041,-0.086,0.031,0.10,-0.01,-9.77,53,-49,15
4249,0.020,-0.086,0.031,0.10,-0.01,-9.77,53,-49,15
4250,-0.041,-0.025,0.031,0.10,-0.01,-9.85,52,-54,12
4251,-0.102,-0.025,-0.030,0.10,-0.01,-9.77,52,-54,12
4252,0.020,-0.025,0.031,0.10,-0.01,-9.85,54,-50,12
4253,0.020,0.036,0.092,0.10,-0.01,-9.77,54,-50,12
4254,0.081,0.036,-0.091,0.10,-0.09,-9.77,51,-57,7
4255,0.020,0.036,-0.030,0.10,-0.09,-9.77,51,-57,7
4256,-0.102,-0.025,-0.030,0.10,-0.01,-9.77,49,-53,13
4257,0.020,0.036,0.031,0.10,-0.01,-9.77,49,-53,13
4258,0.020,0.036,0.031,0.10,-0.01,-9.77,51,-51,9
4259,-0.041,-0.025,-0.030,0.10,-0.01,-9.77,51,-51,9
4260,-0.041,-0.025,0.031,0.10,-0.01,-9.77,50,-54,8
4261,0.020,-0.086,-0.030,0.10,-0.01,-9.77,50,-54,8
4262,0.020,-0.086,-0.030,0.10,-0.01,-9.77,49,-59,9
4263,0.081,-0.025,-0.030,0.10,-0.01,-9.77,49,-59,9
4264,0.020,-0.025,0.031,0.10,-0.01,-9.77,52,-50,12
4265,0.020,-0.025,0.031,0.10,-0.01,-9.77,52,-50,12
4266,-0.102,0.097,-0.030,0.10,-0.01,-9.85,50,-52,8
4267,-0.041,-0.086,0.031,0.10,-0.01,-9.85,50,-52,8
4268,0.081,-0.147,-0.030,0.10,-0.01,-9.85,48,-54,14
4269,-0.102,-0.025,-0.030,0.10,-0.01,-9.77,48,-54,14
4270,-0.041,-0.025,-0.091,0.10,-0.01,-9.77,52,-50,12
4271,-0.041,0.036,0.031,0.10,-0.01,-9.85,52,-50,12
4272,0.020,0.158,0.154,0.10,-0.01,-9.77,49,-51,11
4273,0.020,-0.025,0.092,0.10,-0.01,-9.77,49,-51,11
4274,-0.041,0.036,0.092,0.10,-0.09,-9.77,49,-51,9
4275,-0.041,-0.025,0.092,0.10,-0.01,-9.77,49,-51,9
4276,0.081,-0.025,-0.091,0.10,-0.01,-9.77,48,-54,10
4277,-0.041,-0.025,-0.091,0.10,-0.01,-9.85,48,-54,10
4278,0.020,0.097,-0.091,0.10,-0.01,-9.85,51,-51,11
4279,-0.041,0.097,0.092,0.10,-0.01,-9.85,51,-51,11
4280,-0.163,-0.025,0.092,0.10,-0.01,-9.85,45,-57,9
4281,-0.041,-0.086,-0.091,0.10,-0.01,-9.85,45,-57,9
4282,-0.041,-0.025,-0.030,0.10,-0.01,-9.85,51,-55,5
4283,0.020,-0.208,0.031,0.10,-0.01,-9.85,51,-55,5
4284,0.081,0.036,0.092,0.10,-0.01,-9.85,50,-54,10
4285,0.081,-0.147,0.092,0.10,-0.01,-9.85,50,-54,10
4286,0.020,-0.025,-0.030,0.03,-0.01,-9.85,46,-54,6
4287,0.020,-0.025,0.031,0.10,-0.01,-9.85,46,-54,6
4288,0.081,-0.086,-0.030,0.10,-0.01,-9.85,48,-56,8
4289,-0.041,-0.025,0.031,0.10,-0.01,-9.85,48,-56,8
4290,0.020,-0.086,0.031,0.10,-0.01,-9.85,48,-52,12
4291,-0.102,-0.147,0.031,0.03,-0.01,-9.85,48,-52,12
4292,0.020,-0.025,0.031,0.03,-0.01,-9.77,51,-53,7
4293,0.020,-0.025,0.031,0.03,-0.01,-9.85,51,-53,7
4294,0.081,-0.025,-0.030,0.03,-0.01,-9.85,47,-57,9
4295,0.020,-0.208,0.031,0.03,-0.01,-9.85,47,-57,9
4296,-0.041,0.036,0.031,0.10,-0.01,-9.85,51,-57,3
4297,0.081,-0.025,-0.030,0.03,-0.01,-9.85,51,-57,3
4298,0.081,-0.025,0.031,0.10,-0.01,-9.85,50,-54,8
4299,0.081,-0.025,0.031,0.10,-0.01,-9.77,50,-54,8
4300,-0.041,-0.086,0.031,0.10,-0.01,-9.77,54,-56,8
4301,-0.102,-0.086,0.031,0.10,-0.01,-9.77,54,-56,8
4302,-0.041,-0.147,-0.030,0.10,-0.01,-9.77,49,-57,13
4303,-0.041,-0.147,0.031,0.10,-0.01,-9.77,49,-57,13
4304,-0.041,-0.147,-0.030,0.10,-0.01,-9.77,44,-54,6
4305,0.020,-0.086,-0.030,0.10,-0.01,-9.77,44,-54,6
4306,0.020,0.036,0.031,0.10,-0.01,-9.77,51,-53,11
4307,-0.041,0.097,0.031,0.10,-0.01,-9.77,51,-53,11
4308,0.081,-0.025,-0.030,0.10,-0.01,-9.77,49,-57,9
4309,0.020,0.097,0.031,0.03,-0.01,-9.77,49,-57,9
4310,-0.102,-0.086,0.092,0.03,-0.01,-9.77,52,-56,10
4311,0.081,0.036,0.031,0.03,-0.01,-9.77,52,-56,10
4312,-0.102,-0.025,0.031,0.03,-0.01,-9.77,51,-55,9
4313,0.142,-0.025,-0.030,0.03,-0.09,-9.77,51,-55,9
4314,0.020,-0.025,-0.091,0.03,-0.09,-9.77,49,-55,9
4315,0.081,-0.025,-0.030,0.03,-0.09,-9.85,49,-55,9
4316,0.020,-0.025,-0.030,0.03,-0.01,-9.85,50,-58,8
4317,0.020,0.097,0.031,0.10,-0.09,-9.85,50,-58,8
4318,0.020,-0.086,-0.091,0.10,-0.01,-9.77,50,-52,6
4319,0.020,0.097,0.092,0.10,-0.01,-9.85,50,-52,6
4320,-0.041,-0.086,0.031,0.03,-0.01,-9.85,49,-53,5
4321,0.020,-0.086,-0.091,0.10,-0.01,-9.85,49,-53,5
4322,0.081,0.036,-0.030,0.10,-0.01,-9.85,56,-56,12
4323,-0.041,0.036,0.031,0.10,-0.01,-9.85,56,-56,12
4324,-0.041,-0.086,-0.091,0.10,-0.01,-9.77,54,-52,10
4325,0.020,-0.086,-0.030,0.10,-0.01,-9.85,54,-52,10
4326,-0.041,0.036,0.031,0.10,-0.01,-9.85,53,-53,11
4327,0.020,0.097,-0.030,0.10,-0.01,-9.85,53,-53,11
4328,0.020,0.036,0.031,0.10,-0.01,-9.85,48,-54,8
4329,-0.041,0.036,0.092,0.10,-0.01,-9.85,48,-54,8
4330,0.081,0.097,0.031,0.10,-0.01,-9.85,46,-52,6
4331,0.081,-0.025,-0.030,0.10,-0.01,-9.85,46,-52,6
4332,-0.041,-0.025,-0.091,0.10,-0.01,-9.85,47,-55,13
4333,0.081,-0.147,-0.030,0.10,-0.01,-9.85,47,-55,13
4334,-0.041,0.097,-0.030,0.03,-0.01,-9.85,50,-54,8
4335,0.142,-0.025,-0.030,0.03,-0.01,-9.85,50,-54,8
4336,-0.041,-0.025,-0.030,0.10,-0.01,-9.85,52,-52,8
4337,0.020,-0.086,-0.091,0.10,-0.01,-9.85,52,-52,8
4338,0.020,-0.086,-0.030,0.10,-0.01,-9.85,53,-53,9
4339,0.020,-0.086,0.092,0.10,-0.01,-9.85,53,-53,9
4340,-0.041,-0.025,0.031,0.10,-0.01,-9.85,48,-54,10
4341,-0.041,0.036,-0.030,0.10,-0.01,-9.85,48,-54,10
4342,0.081,0.036,0.092,0.10,-0.01,-9.85,47,-59,1
4343,0.020,-0.025,-0.030,0.10,-0.01,-9.85,47,-59,1
4344,0.020,-0.025,-0.030,0.10,-0.01,-9.77,53,-49,7
4345,0.020,-0.086,0.031,0.10,-0.01,-9.77,53,-49,7
4346,0.081,-0.086,0.031,0.10,-0.01,-9.77,47,-47,7
4347,0.081,0.158,0.031,0.10,-0.01,-9.77,47,-47,7
4348,-0.041,0.097,-0.030,0.10,-0.01,-9.77,52,-54,4
4349,-0.041,0.097,0.031,0.10,-0.01,-9.77,52,-54,4
4350,-0.041,-0.025,0.031,0.10,-0.01,-9.85,49,-51,7
4351,-0.041,-0.025,0.031,0.10,-0.01,-9.77,49,-51,7
4352,0.020,0.097,0.031,0.03,-0.01,-9.85,50,-52,4
4353,0.020,0.036,0.031,0.03,-0.01,-9.85,50,-52,4
4354,-0.041,0.036,0.092,0.03,-0.01,-9.85,47,-57,7
4355,-0.041,0.036,-0.091,0.03,-0.01,-9.85,47,-57,7
4356,-0.041,-0.086,-0.091,0.03,-0.01,-9.85,52,-54,12
4357,0.081,0.036,-0.091,0.03,-0.01,-9.85,52,-54,12
4358,0.020,0.097,-0.030,0.03,-0.01,-9.85,47,-51,11
4359,-0.102,-0.086,0.031,0.03,-0.01,-9.85,47,-51,11
4360,-0.041,0.158,0.031,0.03,-0.01,-9.85,50,-54,6
4361,-0.041,0.036,0.092,0.03,-0.01,-9.85,50,-54,6
4362,0.081,-0.025,-0.030,0.03,-0.01,-9.85,45,-57,7
4363,-0.041,-0.147,-0.091,0.03,-0.01,-9.77,45,-57,7
4364,0.020,0.036,0.031,0.03,-0.01,-9.77,50,-50,8
4365,-0.041,-0.025,-0.030,0.03,-0.01,-9.77,50,-50,8
4366,0.020,0.036,0.031,0.03,-0.01,-9.77,48,-54,6
4367,-0.041,0.097,-0.030,0.03,-0.01,-9.85,48,-54,6
4368,-0.102,-0.086,0.031,0.03,-0.01,-9.85,47,-55,5
4369,-0.041,-0.025,-0.030,0.03,-0.01,-9.77,47,-55,5
4370,-0.041,0.036,0.092,0.03,-0.01,-9.77,44,-56,10
4371,0.020,-0.025,-0.030,0.03,-0.01,-9.85,44,-56,10
4372,0.020,0.036,-0.030,0.03,-0.01,-9.85,44,-54,4
4373,-0.041,-0.025,-0.030,0.03,-0.01,-9.77,44,-54,4
4374,-0.102,0.036,0.092,0.10,-0.01,-9.77,48,-52,6
4375,-0.041,0.036,0.031,0.10,-0.01,-9.77,48,-52,6
4376,0.020,0.036,-0.030,0.10,-0.01,-9.77,51,-53,9
4377,0.020,-0.025,-0.030,0.10,-0.01,-9.85,51,-53,9
4378,0.081,-0.025,0.031,0.10,-0.01,-9.85,52,-54,12
4379,-0.102,0.036,-0.091,0.10,-0.01,-9.85,52,-54,12
4380,-0.102,-0.025,0.092,0.10,-0.01,-9.85,47,-55,11
4381,-0.041,-0.025,0.031,0.10,-0.01,-9.85,47,-55,11
4382,-0.041,-0.086,-0.030,0.10,-0.01,-9.85,53,-53,5
4383,0.020,-0.086,-0.091,0.03,-0.01,-9.85,53,-53,5
4384,0.081,0.036,0.031,0.03,-0.01,-9.85,53,-51,9
4385,0.081,0.097,0.031,0.03,-0.01,-9.85,53,-51,9
4386,-0.041,0.036,-0.091,0.03,-0.01,-9.85,49,-55,7
4387,-0.041,-0.025,-0.030,0.03,-0.01,-9.85,49,-55,7
4388,-0.102,-0.025,-0.030,0.03,-0.01,-9.85,48,-52,10
4389,0.020,-0.025,-0.091,0.03,-0.01,-9.85,48,-52,10
4390,-0.102,-0.208,0.031,0.03,-0.01,-9.85,48,-50,6
4391,0.020,-0.086,0.092,0.03,-0.01,-9.85,48,-50,6
4392,-0.041,-0.025,-0.030,0.10,-0.01,-9.85,53,-51,7
4393,0.081,-0.025,-0.030,0.03,-0.01,-9.85,53,-51,7
4394,-0.041,-0.025,0.092,0.10,-0.01,-9.85,49,-51,9
4395,0.020,0.097,0.031,0.10,-0.01,-9.85,49,-51,9
4396,0.081,0.036,0.092,0.10,-0.01,-9.85,53,-51,9
4397,0.142,-0.025,0.031,0.10,-0.01,-9.85,53,-51,9
4398,0.020,0.036,-0.030,0.10,-0.01,-9.85,50,-50,8
4399,-0.041,0.036,-0.091,0.03,-0.01,-9.85,50,-50,8
4400,-0.041,0.036,0.031,0.03,-0.01,-9.85,46,-56,8
4401,-0.041,-0.025,0.031,0.03,-0.01,-9.85,46,-56,8
4402,0.020,-0.025,-0.030,0.03,-0.01,-9.85,53,-53,5
4403,-0.102,-0.025,-0.030,0.10,-0.01,-9.85,53,-53,5
4404,0.020,-0.086,-0.091,0.10,-0.01,-9.85,47,-51,11
4405,0.020,0.097,-0.152,0.10,-0.01,-9.85,47,-51,11
4406,-0.041,-0.086,-0.091,0.10,-0.01,-9.85,46,-56,10
4407,0.081,0.036,0.092,0.10,-0.01,-9.85,46,-56,10
4408,-0.041,-0.025,0.154,0.10,-0.01,-9.85,45,-55,5
4409,0.081,0.036,0.031,0.10,-0.01,-9.85,45,-55,5
4410,-0.041,-0.086,-0.030,0.10,-0.01,-9.85,53,-53,11
4411,-0.041,-0.025,-0.030,0.10,-0.01,-9.85,53,-53,11
4412,0.020,0.097,-0.030,0.10,-0.01,-9.85,56,-56,6
4413,0.081,-0.086,0.031,0.10,-0.01,-9.85,56,-56,6
4414,0.020,-0.086,0.031,0.10,-0.01,-9.85,53,-55,7
4415,-0.102,-0.025,-0.091,0.03,-0.01,-9.85,53,-55,7
4416,-0.102,-0.025,0.092,0.03,-0.01,-9.85,48,-56,6
4417,-0.102,-0.025,0.092,0.03,-0.01,-9.85,48,-56,6
4418,0.081,-0.025,-0.091,0.03,-0.01,-9.85,57,-53,7
4419,0.142,-0.025,0.031,0.03,-0.01,-9.85,57,-53,7
4420,0.081,-0.025,0.092,0.10,-0.01,-9.85,52,-50,8
4421,0.020,-0.086,-0.030,0.10,-0.01,-9.85,52,-50,8
4422,0.142,0.036,-0.030,0.10,-0.01,-9.85,50,-56,12
4423,0.020,-0.025,-0.030,0.10,-0.01,-9.85,50,-56,12
4424,0.020,0.097,-0.030,0.10,-0.01,-9.85,52,-56,6
4425,0.020,0.036,-0.030,0.10,-0.09,-9.85,52,-56,6
4426,0.020,-0.086,-0.030,0.10,-0.09,-9.85,45,-59,1
4427,0.020,0.036,-0.030,0.10,-0.09,-9.85,45,-59,1
4428,0.020,-0.147,0.031,0.03,-0.01,-9.85,52,-50,8
4429,0.081,-0.086,0.092,0.03,-0.01,-9.85,52,-50,8
4430,0.081,-0.025,-0.091,0.03,-0.01,-9.85,50,-54,8
4431,0.020,-0.086,0.031,0.03,-0.01,-9.85,50,-54,8
4432,0.020,-0.025,0.031,0.03,-0.01,-9.85,50,-54,10
4433,0.020,0.036,0.031,0.03,-0.01,-9.85,50,-54,10
4434,-0.041,0.036,-0.030,0.03,-0.01,-9.85,51,-55,13
4435,-0.102,-0.025,-0.030,0.03,-0.01,-9.85,51,-55,13
4436,0.081,-0.025,0.031,0.03,-0.01,-9.85,51,-51,11
4437,-0.041,0.036,-0.091,0.10,-0.01,-9.85,51,-51,11
4438,0.020,0.097,0.154,0.10,-0.01,-9.85,50,-54,6
4439,-0.041,-0.086,0.092,0.10,-0.01,-9.85,50,-54,6
4440,-0.041,0.036,-0.030,0.10,-0.09,-9.85,51,-57,11
4441,0.081,-0.025,-0.030,0.10,-0.09,-9.85,51,-57,11
4442,0.020,0.036,0.092,0.10,-0.09,-9.85,49,-53,11
4443,0.020,0.097,-0.030,0.10,-0.09,-9.85,49,-53,11
4444,0.020,0.036,0.031,0.10,-0.09,-9.85,51,-51,5
4445,-0.163,-0.025,0.031,0.10,-0.09,-9.85,51,-51,5
4446,-0.041,-0.025,0.031,0.10,-0.09,-9.85,49,-59,7
4447,-0.041,-0.147,-0.030,0.10,-0.09,-9.85,49,-59,7
4448,-0.041,0.036,0.031,0.10,-0.09,-9.85,50,-50,4
4449,-0.102,-0.086,-0.030,0.10,-0.01,-9.85,50,-50,4
4450,-0.041,-0.025,-0.030,0.10,-0.01,-9.85,52,-50,2
4451,-0.041,0.097,0.031,0.10,-0.09,-9.85,52,-50,2
4452,0.081,-0.025,0.031,0.03,-0.01,-9.85,52,-56,14
4453,-0.041,-0.025,-0.091,0.03,-0.01,-9.85,52,-56,14
4454,0.020,0.036,0.092,0.03,-0.01,-9.85,50,-54,12
4455,-0.102,-0.086,0.092,0.10,-0.01,-9.85,50,-54,12
4456,-0.102,-0.147,0.031,0.10,-0.01,-9.85,49,-49,9
4457,0.020,0.036,-0.091,0.10,-0.01,-9.85,49,-49,9
4458,0.081,0.036,-0.091,0.10,-0.01,-9.85,49,-61,11
4459,-0.041,-0.025,-0.030,0.10,-0.01,-9.85,49,-61,11
4460,0.020,0.036,0.092,0.10,-0.01,-9.85,48,-50,6
4461,0.081,0.036,0.031,0.10,-0.01,-9.85,48,-50,6
4462,0.020,0.036,-0.030,0.10,-0.09,-9.77,45,-55,5
4463,-0.041,0.097,-0.091,0.10,-0.09,-9.77,45,-55,5
4464,-0.041,-0.086,-0.030,0.03,-0.09,-9.77,47,-53,5
4465,-0.041,-0.025,-0.030,0.03,-0.09,-9.77,47,-53,5
4466,0.020,-0.025,0.092,0.03,-0.09,-9.77,49,-53,7
4467,-0.041,0.097,0.031,0.03,-0.09,-9.77,49,-53,7
4468,0.020,0.036,0.031,0.03,-0.09,-9.77,52,-50,8
4469,-0.102,0.036,0.092,0.03,-0.09,-9.77,52,-50,8
4470,0.081,-0.086,0.031,0.03,-0.09,-9.77,49,-57,9
4471,-0.102,0.097,-0.030,0.03,-0.09,-9.77,49,-57,9
4472,0.020,0.097,0.031,0.10,-0.09,-9.77,53,-53,9
4473,0.020,0.097,0.031,0.03,-0.01,-9.77,53,-53,9
4474,0.020,0.036,-0.030,0.10,-0.01,-9.77,51,-55,11
4475,0.020,-0.025,0.031,0.10,-0.01,-9.77,51,-55,11
4476,-0.041,-0.086,0.092,0.10,-0.01,-9.77,54,-56,8
4477,0.081,0.036,-0.091,0.10,-0.01,-9.77,54,-56,8
4478,-0.041,-0.086,-0.030,0.03,-0.01,-9.77,52,-56,8
4479,-0.041,-0.086,-0.030,0.03,-0.01,-9.77,52,-56,8
4480,-0.102,-0.025,-0.091,0.03,-0.01,-9.77,50,-50,8
4481,0.020,0.036,-0.030,0.10,-0.09,-9.77,50,-50,8
4482,0.081,-0.025,-0.091,0.10,-0.09,-9.77,51,-53,11
4483,0.081,0.097,0.031,0.10,-0.09,-9.77,51,-53,11
4484,0.081,-0.147,-0.030,0.10,-0.09,-9.77,54,-50,4
4485,0.020,-0.208,0.031,0.10,-0.09,-9.77,54,-50,4
4486,-0.041,-0.208,-0.030,0.10,-0.09,-9.77,49,-57,13
4487,0.020,0.036,-0.030,0.10,-0.09,-9.77,49,-57,13
4488,-0.102,-0.086,0.031,0.10,-0.09,-9.77,49,-57,5
4489,0.020,-0.086,-0.091,0.10,-0.09,-9.77,49,-57,5
4490,-0.041,-0.086,0.031,0.10,-0.01,-9.85,52,-56,8
4491,0.142,0.036,0.092,0.03,-0.01,-9.85,52,-56,8
4492,0.203,-0.025,0.031,0.03,-0.01,-9.85,48,-54,6
4493,0.020,-0.025,0.092,0.03,-0.01,-9.85,48,-54,6
4494,0.081,0.036,-0.030,0.03,-0.01,-9.85,46,-56,4
4495,-0.041,-0.025,0.031,0.03,-0.01,-9.85,46,-56,4
4496,0.020,0.036,0.031,0.03,-0.01,-9.85,52,-50,8
4497,-0.041,0.036,0.092,0.03,-0.01,-9.77,52,-50,8
4498,0.020,-0.025,0.031,0.03,-0.01,-9.77,44,-50,10
4499,-0.041,-0.025,-0.030,0.03,-0.01,-9.77,44,-50,10
4500,-0.041,-0.086,0.031,0.03,-0.01,-9.85,48,-54,8
4501,0.020,0.036,0.031,0.03,-0.01,-9.85,48,-54,8
4502,0.020,0.097,0.031,0.03,-0.01,-9.85,46,-50,10
4503,0.020,0.158,-0.091,0.03,-0.01,-9.85,46,-50,10
4504,-0.041,0.036,0.092,0.03,-0.01,-9.85,51,-57,5
4505,0.020,0.097,-0.030,0.10,-0.01,-9.85,51,-57,5
4506,0.020,-0.025,-0.030,0.10,-0.01,-9.85,53,-53,9
4507,0.020,-0.025,-0.091,0.10,-0.01,-9.85,53,-53,9
4508,0.081,-0.025,-0.152,0.10,-0.01,-9.85,52,-52,8
4509,0.081,0.036,-0.030,0.10,-0.01,-9.85,52,-52,8
4510,0.020,-0.025,-0.030,0.10,-0.01,-9.85,54,-56,10
4511,-0.041,-0.086,0.031,0.10,-0.01,-9.85,54,-56,10
4512,0.081,-0.025,-0.091,0.10,-0.01,-9.85,53,-51,11
4513,0.020,-0.025,-0.030,0.10,-0.01,-9.85,53,-51,11
4514,0.020,-0.025,-0.030,0.10,-0.01,-9.85,50,-56,10
4515,-0.102,-0.025,-0.030,0.03,-0.01,-9.85,50,-56,10
4516,0.020,-0.086,-0.030,0.03,-0.01,-9.85,50,-52,10
4517,0.081,0.036,0.031,0.03,-0.01,-9.85,50,-52,10
4518,0.020,-0.025,-0.030,0.03,-0.01,-9.85,49,-57,11
4519,0.081,-0.086,-0.152,0.03,-0.01,-9.85,49,-57,11
4520,0.020,-0.025,-0.030,0.03,-0.01,-9.77,51,-55,7
4521,0.020,0.097,-0.030,0.03,-0.01,-9.85,51,-55,7
4522,0.142,-0.086,0.031,0.03,-0.01,-9.85,49,-51,9
4523,0.020,0.036,-0.030,0.03,-0.01,-9.85,49,-51,9
4524,-0.102,-0.147,0.031,0.03,-0.01,-9.85,51,-53,7
4525,-0.041,-0.025,0.031,0.03,-0.01,-9.85,51,-53,7
4526,0.020,0.097,-0.030,0.03,-0.01,-9.85,50,-54,8
4527,0.081,-0.086,0.092,0.03,-0.01,-9.85,50,-54,8
4528,-0.041,0.036,-0.091,0.10,-0.01,-9.85,51,-53,11
4529,0.020,-0.025,0.092,0.03,-0.01,-9.85,51,-53,11
4530,0.020,-0.086,-0.030,0.03,-0.01,-9.85,52,-48,12
4531,-0.041,0.036,0.092,0.10,-0.01,-9.77,52,-48,12
4532,-0.041,-0.086,0.031,0.03,-0.01,-9.77,47,-57,7
4533,-0.041,0.036,-0.030,0.10,-0.01,-9.77,47,-57,7
4534,0.020,-0.086,-0.030,0.03,-0.01,-9.85,52,-56,12
4535,-0.041,-0.025,0.031,0.10,-0.01,-9.77,52,-56,12
4536,0.020,-0.025,0.031,0.10,-0.01,-9.77,45,-53,9
4537,-0.102,-0.086,-0.030,0.10,-0.01,-9.77,45,-53,9
4538,-0.041,0.036,0.031,0.03,-0.01,-9.77,48,-54,8
4539,0.020,0.036,-0.030,0.03,-0.01,-9.77,48,-54,8
4540,0.020,0.158,0.031,0.03,-0.01,-9.77,50,-50,8
4541,-0.041,0.036,0.031,0.03,-0.01,-9.77,50,-50,8
4542,0.081,-0.086,-0.091,0.03,-0.01,-9.77,49,-55,9
4543,0.020,-0.025,0.031,0.03,-0.01,-9.77,49,-55,9
4544,-0.041,-0.025,-0.091,0.03,-0.01,-9.85,49,-51,5
4545,0.020,-0.025,-0.030,0.03,-0.01,-9.85,49,-51,5
4546,0.081,-0.025,-0.030,0.03,-0.01,-9.85,53,-53,9
4547,0.081,0.097,0.092,0.03,-0.01,-9.85,53,-53,9
4548,0.020,-0.025,0.154,0.03,-0.01,-9.85,52,-56,8
4549,0.020,-0.025,-0.030,0.03,-0.01,-9.85,52,-56,8
4550,0.081,-0.147,0.031,0.03,-0.01,-9.85,52,-52,6
4551,-0.041,-0.208,0.031,0.03,-0.01,-9.85,52,-52,6
4552,0.020,-0.025,0.092,0.03,-0.01,-9.85,48,-50,8
4553,0.020,0.036,0.031,0.03,-0.01,-9.85,48,-50,8
4554,0.020,-0.025,-0.030,0.03,-0.01,-9.85,44,-50,4
4555,0.020,-0.086,0.031,0.03,-0.01,-9.85,44,-50,4
4556,0.020,0.036,-0.030,0.03,-0.09,-9.85,47,-55,5
4557,-0.041,-0.025,0.031,0.03,-0.01,-9.85,47,-55,5
4558,-0.102,-0.086,-0.030,0.03,-0.01,-9.85,50,-54,10
4559,-0.102,0.036,-0.030,0.03,-0.01,-9.85,50,-54,10
4560,0.142,-0.025,-0.030,0.03,-0.01,-9.85,50,-54,8
4561,0.020,-0.147,0.092,0.03,-0.01,-9.85,50,-54,8
4562,0.020,-0.086,0.092,0.03,-0.01,-9.85,46,-48,14
4563,0.081,-0.086,0.031,0.03,-0.09,-9.77,46,-48,14
4564,0.020,-0.086,0.031,0.03,-0.01,-9.77,50,-56,14
4565,-0.041,-0.086,-0.030,0.03,-0.01,-9.85,50,-56,14
4566,-0.102,-0.147,0.031,0.03,-0.01,-9.85,50,-50,12
4567,0.020,-0.025,-0.030,0.03,-0.01,-9.77,50,-50,12
4568,-0.102,-0.025,0.031,0.03,-0.01,-9.77,52,-54,12
4569,-0.041,-0.086,0.031,0.03,-0.01,-9.77,52,-54,12
4570,0.020,0.097,-0.030,0.03,-0.01,-9.77,50,-56,10
4571,-0.041,0.036,-0.030,0.03,-0.01,-9.85,50,-56,10
4572,-0.041,-0.147,0.031,0.03,-0.01,-9.85,54,-50,12
4573,0.020,-0.086,0.031,0.03,-0.01,-9.85,54,-50,12
4574,-0.163,0.097,-0.030,0.03,-0.01,-9.85,49,-49,9
4575,-0.102,0.036,-0.030,0.03,-0.01,-9.85,49,-49,9
4576,0.020,0.036,0.031,0.03,-0.01,-9.85,50,-52,10
4577,0.081,-0.086,-0.030,0.10,-0.01,-9.85,50,-52,10
4578,-0.041,-0.025,0.031,0.03,-0.01,-9.85,47,-55,5
4579,0.020,0.097,0.092,0.03,-0.01,-9.85,47,-55,5
4580,0.020,-0.147,0.092,0.03,-0.01,-9.85,48,-52,8
4581,0.020,-0.086,-0.030,0.03,-0.09,-9.85,48,-52,8
4582,0.081,-0.086,0.092,0.03,-0.09,-9.85,51,-57,5
4583,0.020,-0.086,-0.030,0.03,-0.01,-9.85,51,-57,5
4584,-0.102,-0.147,0.092,0.03,-0.01,-9.85,46,-56,4
4585,-0.041,-0.086,0.031,0.03,-0.01,-9.85,46,-56,4
4586,0.020,-0.086,-0.091,0.03,-0.09,-9.85,50,-50,8
4587,0.020,0.036,0.031,0.03,-0.09,-9.77,50,-50,8
4588,0.081,-0.025,0.031,0.03,-0.09,-9.77,47,-55,11
4589,0.142,-0.086,-0.030,0.03,-0.09,-9.77,47,-55,11
4590,0.020,-0.025,-0.091,0.03,-0.09,-9.77,51,-55,9
4591,-0.041,-0.086,-0.030,0.03,-0.01,-9.77,51,-55,9
4592,0.081,-0.086,0.154,0.03,-0.01,-9.77,46,-50,10
4593,0.020,-0.025,0.031,0.03,-0.01,-9.77,46,-50,10
4594,-0.041,-0.025,0.154,0.10,-0.01,-9.77,51,-51,5
4595,-0.041,0.158,-0.030,0.03,-0.01,-9.85,51,-51,5
4596,0.081,0.036,0.031,0.03,-0.01,-9.77,50,-52,14
4597,0.081,0.036,-0.030,0.03,-0.01,-9.85,50,-52,14
4598,-0.041,-0.025,0.031,0.03,-0.01,-9.77,51,-53,9
4599,0.020,0.036,-0.030,0.03,-0.01,-9.77,51,-53,9
4600,0.020,-0.147,-0.030,0.03,-0.01,-9.77,53,-49,1
4601,-0.041,-0.025,-0.030,0.03,-0.01,-9.77,53,-49,1
4602,-0.041,0.036,0.031,0.03,-0.01,-9.77,46,-54,8
4603,0.081,0.036,0.092,0.03,-0.01,-9.77,46,-54,8
4604,0.081,-0.025,-0.030,0.03,-0.01,-9.77,54,-58,12
4605,0.081,0.036,0.031,0.03,-0.01,-9.77,54,-58,12
4606,0.020,-0.025,0.031,-0.05,-0.01,-9.77,52,-56,6
4607,0.020,0.036,0.031,0.03,-0.01,-9.77,52,-56,6
4608,-0.102,-0.147,-0.030,0.03,-0.01,-9.77,51,-53,9
4609,-0.041,-0.025,0.031,0.03,-0.09,-9.77,51,-53,9
4610,0.081,0.036,-0.030,0.03,-0.09,-9.85,50,-52,6
4611,0.020,0.036,0.031,0.03,-0.09,-9.85,50,-52,6
4612,0.020,-0.025,-0.030,0.03,-0.09,-9.85,51,-51,5
4613,0.081,-0.147,0.031,0.03,-0.09,-9.85,51,-51,5
4614,0.020,0.097,-0.091,0.03,-0.01,-9.85,49,-49,9
4615,0.081,-0.086,-0.030,0.03,-0.09,-9.85,49,-49,9
4616,0.020,-0.086,-0.030,0.03,-0.09,-9.85,48,-54,10
4617,0.020,-0.025,-0.030,0.03,-0.09,-9.85,48,-54,10
4618,0.081,-0.025,-0.091,0.03,-0.01,-9.85,48,-56,10
4619,0.020,0.036,-0.091,0.03,-0.01,-9.85,48,-56,10
4620,0.081,-0.025,0.031,0.03,-0.01,-9.85,53,-59,7
4621,-0.041,-0.025,0.031,0.03,-0.01,-9.85,53,-59,7
4622,0.081,-0.025,-0.091,0.03,-0.01,-9.85,53,-55,5
4623,-0.041,0.036,-0.152,0.03,-0.01,-9.85,53,-55,5
4624,0.081,0.036,-0.030,0.10,-0.01,-9.85,53,-53,11
4625,-0.041,0.097,-0.091,0.03,-0.01,-9.85,53,-53,11
4626,-0.041,0.036,-0.091,0.03,-0.01,-9.85,51,-51,5
4627,0.020,-0.147,-0.030,0.03,-0.01,-9.85,51,-51,5
4628,0.020,-0.025,0.031,0.03,-0.01,-9.85,49,-49,9
4629,0.020,0.097,-0.030,0.03,-0.01,-9.85,49,-49,9
4630,-0.041,-0.025,0.092,0.03,-0.01,-9.85,50,-54,12
4631,-0.041,-0.086,-0.030,0.03,-0.01,-9.85,50,-54,12
4632,0.020,-0.147,-0.030,0.03,-0.01,-9.85,51,-53,7
4633,0.081,-0.086,0.154,0.03,-0.01,-9.85,51,-53,7
4634,0.020,0.036,-0.030,0.03,-0.01,-9.85,47,-51,9
4635,-0.041,0.097,-0.030,0.03,-0.01,-9.85,47,-51,9
4636,-0.041,0.036,-0.030,0.03,-0.01,-9.85,55,-53,5
4637,0.020,-0.086,0.031,0.03,-0.01,-9.85,55,-53,5
4638,0.081,-0.025,-0.091,0.03,-0.01,-9.77,47,-57,11
4639,0.020,0.036,0.031,0.03,-0.01,-9.85,47,-57,11
4640,0.020,-0.086,0.031,0.03,-0.01,-9.85,47,-57,5
4641,0.081,-0.086,-0.091,0.03,-0.01,-9.85,47,-57,5
4642,-0.041,0.036,0.031,0.03,-0.01,-9.77,49,-59,11
4643,-0.041,-0.025,0.031,0.03,-0.01,-9.85,49,-59,11
4644,-0.041,-0.086,-0.091,0.03,-0.01,-9.85,52,-50,4
4645,0.020,-0.208,-0.091,0.03,-0.01,-9.85,52,-50,4
4646,0.020,-0.147,0.031,0.03,-0.01,-9.85,53,-53,5
4647,0.020,-0.086,0.031,0.03,-0.01,-9.85,53,-53,5
4648,0.020,-0.086,0.031,0.03,-0.01,-9.85,46,-54,6
4649,-0.041,0.036,0.031,0.03,-0.01,-9.85,46,-54,6
4650,-0.041,0.036,-0.030,0.03,-0.09,-9.85,49,-57,7
4651,-0.041,-0.147,-0.091,0.03,-0.09,-9.85,49,-57,7
4652,0.081,-0.025,-0.030,0.03,-0.09,-9.85,52,-54,6
4653,-0.041,-0.025,0.154,0.10,-0.09,-9.85,52,-54,6
4654,-0.041,-0.025,-0.030,0.10,-0.09,-9.77,50,-50,8
4655,0.020,-0.025,0.031,0.10,-0.01,-9.85,50,-50,8
4656,0.081,-0.086,-0.091,0.03,-0.01,-9.85,46,-58,8
4657,-0.102,0.097,-0.030,0.03,-0.01,-9.85,46,-58,8
4658,0.020,0.036,-0.030,0.03,-0.01,-9.85,51,-53,5
4659,0.020,-0.025,-0.030,0.03,-0.01,-9.85,51,-53,5
4660,0.020,-0.208,-0.030,0.03,-0.01,-9.85,47,-59,11
4661,0.020,0.036,0.031,0.03,-0.01,-9.85,47,-59,11
4662,-0.041,-0.086,0.092,0.03,0.07,-9.85,53,-53,9
4663,0.020,-0.025,-0.030,0.03,0.07,-9.85,53,-53,9
4664,-0.041,0.036,-0.030,0.03,-0.01,-9.85,46,-54,12
4665,-0.041,-0.025,0.031,0.03,-0.01,-9.85,46,-54,12
4666,0.020,-0.025,0.031,0.03,-0.01,-9.85,53,-53,13
4667,0.020,0.097,-0.030,0.03,-0.01,-9.77,53,-53,13
4668,0.142,0.036,-0.030,0.03,-0.01,-9.77,50,-58,8
4669,0.020,-0.025,0.031,0.03,-0.01,-9.77,50,-58,8
4670,0.081,-0.025,-0.030,0.03,-0.01,-9.77,52,-52,14
4671,-0.041,0.097,-0.091,0.03,-0.01,-9.77,52,-52,14
4672,-0.041,0.097,0.092,0.03,-0.01,-9.85,49,-53,5
4673,0.020,0.036,-0.030,0.03,-0.01,-9.77,49,-53,5
4674,-0.041,-0.086,0.031,0.03,-0.01,-9.77,50,-50,6
4675,0.020,0.036,0.092,0.10,-0.01,-9.77,50,-50,6
4676,0.020,-0.086,0.031,0.10,-0.01,-9.85,48,-52,12
4677,-0.041,-0.086,-0.030,0.10,-0.01,-9.85,48,-52,12
4678,-0.102,-0.086,-0.213,0.10,-0.01,-9.77,51,-51,11
4679,0.081,-0.086,-0.091,0.10,-0.01,-9.77,51,-51,11
4680,0.020,0.097,-0.030,0.10,-0.01,-9.77,50,-56,6
4681,-0.041,0.097,-0.030,0.03,-0.01,-9.77,50,-56,6
4682,0.020,-0.025,-0.152,0.03,-0.01,-9.77,47,-53,7
4683,0.081,0.097,-0.030,0.03,-0.01,-9.77,47,-53,7
4684,-0.041,-0.086,-0.030,0.03,-0.01,-9.85,49,-53,7
4685,-0.102,-0.147,-0.091,0.03,-0.01,-9.85,49,-53,7
4686,0.020,-0.086,0.154,0.03,-0.01,-9.85,49,-53,11
4687,-0.041,-0.025,0.031,0.03,-0.01,-9.85,49,-53,11
4688,0.020,-0.086,-0.030,0.03,-0.01,-9.85,49,-51,9
4689,0.142,-0.086,-0.091,0.10,-0.01,-9.85,49,-51,9
4690,0.142,0.097,-0.030,0.10,-0.01,-9.85,50,-56,10
4691,0.020,0.036,-0.091,0.10,-0.01,-9.85,50,-56,10
4692,0.081,-0.086,-0.030,0.10,-0.01,-9.77,46,-58,8
4693,0.081,0.036,0.031,0.10,-0.09,-9.85,46,-58,8
4694,0.081,-0.086,0.031,0.03,-0.09,-9.77,47,-53,11
4695,-0.041,0.036,0.031,0.03,-0.09,-9.77,47,-53,11
4696,-0.041,-0.086,0.031,0.10,-0.09,-9.77,46,-50,10
4697,0.081,-0.025,-0.030,0.10,-0.09,-9.77,46,-50,10
4698,-0.102,-0.147,-0.030,0.10,-0.01,-9.77,50,-52,2
4699,0.081,-0.025,-0.030,0.03,-0.01,-9.77,50,-52,2
4700,-0.041,-0.025,0.031,0.10,-0.01,-9.85,46,-54,4
4701,-0.041,0.036,0.031,0.10,-0.01,-9.77,46,-54,4
4702,0.020,-0.086,-0.030,0.10,-0.01,-9.77,48,-56,12
4703,0.081,-0.086,0.031,0.10,-0.01,-9.77,48,-56,12
4704,0.142,0.097,0.031,0.10,-0.01,-9.77,46,-54,8
4705,0.081,-0.208,-0.030,0.10,-0.01,-9.77,46,-54,8
4706,0.020,0.036,0.092,0.10,-0.01,-9.85,51,-55,11
4707,-0.041,0.036,0.031,0.10,-0.01,-9.85,51,-55,11
4708,0.020,-0.086,0.031,0.10,-0.01,-9.77,51,-49,11
4709,0.020,0.036,-0.030,0.10,-0.01,-9.77,51,-49,11
4710,-0.041,0.036,0.031,0.10,-0.09,-9.85,48,-52,8
4711,0.020,-0.086,0.031,0.10,-0.01,-9.85,48,-52,8
4712,0.020,-0.025,-0.030,0.10,-0.09,-9.85,55,-51,7
4713,0.020,0.036,-0.091,0.10,-0.01,-9.77,55,-51,7
4714,0.142,0.097,-0.030,0.10,-0.01,-9.77,43,-53,13
4715,0.020,0.036,-0.030,0.10,-0.09,-9.77,43,-53,13
4716,0.020,-0.086,0.031,0.10,-0.09,-9.77,50,-54,6
4717,-0.041,0.036,-0.030,0.10,-0.09,-9.85,50,-54,6
4718,-0.102,-0.025,-0.091,0.10,-0.01,-9.85,51,-55,11
4719,-0.041,0.097,-0.030,0.10,-0.01,-9.77,51,-55,11
4720,-0.041,-0.086,0.092,0.10,-0.01,-9.77,54,-56,10
4721,0.081,-0.025,0.031,0.10,-0.01,-9.85,54,-56,10
4722,0.020,-0.025,0.092,0.10,-0.01,-9.85,48,-54,8
4723,0.081,-0.025,0.031,0.10,-0.09,-9.85,48,-54,8
4724,-0.041,0.036,0.031,0.10,-0.09,-9.85,50,-54,8
4725,-0.041,-0.025,-0.030,0.10,-0.09,-9.85,50,-54,8
4726,-0.041,-0.086,0.031,0.10,-0.09,-9.85,51,-55,5
4727,0.081,-0.025,0.031,0.10,-0.09,-9.85,51,-55,5
4728,0.020,0.036,0.092,0.10,-0.09,-9.85,49,-53,7
4729,-0.041,-0.025,-0.091,0.10,-0.09,-9.85,49,-53,7
4730,0.020,0.036,-0.030,0.03,-0.01,-9.85,52,-54,10
4731,0.142,-0.025,-0.030,0.03,-0.01,-9.85,52,-54,10
4732,0.081,0.036,0.031,0.03,-0.01,-9.77,51,-55,7
4733,0.020,-0.025,0.031,0.03,-0.01,-9.85,51,-55,7
4734,0.020,0.036,-0.030,0.03,-0.01,-9.85,50,-52,10
4735,-0.041,-0.147,0.031,0.03,-0.01,-9.85,50,-52,10
4736,-0.163,-0.147,0.031,0.10,-0.01,-9.85,47,-59,13
4737,0.142,-0.086,0.031,0.10,-0.01,-9.85,47,-59,13
4738,-0.041,0.036,-0.030,0.10,-0.01,-9.85,52,-54,6
4739,0.020,0.036,0.031,0.10,-0.01,-9.85,52,-54,6
4740,-0.041,-0.086,-0.030,0.10,-0.01,-9.85,48,-52,8
4741,0.020,-0.025,-0.030,0.10,-0.01,-9.85,48,-52,8
4742,0.142,-0.086,-0.030,0.10,-0.01,-9.85,49,-51,7
4743,0.081,0.097,-0.030,0.10,-0.01,-9.85,49,-51,7
4744,-0.041,-0.086,0.031,0.10,-0.09,-9.85,42,-50,6
4745,-0.163,-0.086,-0.091,0.03,-0.09,-9.85,42,-50,6
4746,-0.041,-0.086,0.031,0.10,-0.09,-9.85,47,-53,5
4747,-0.041,-0.025,0.092,0.10,-0.09,-9.85,47,-53,5
4748,0.142,-0.025,-0.030,0.10,-0.09,-9.85,45,-55,15
4749,0.020,0.036,-0.091,0.03,-0.01,-9.85,45,-55,15
4750,0.020,0.036,-0.091,0.10,-0.09,-9.85,55,-49,7
4751,-0.041,-0.025,0.031,0.10,-0.01,-9.85,55,-49,7
4752,0.020,0.036,-0.030,0.10,-0.01,-9.85,51,-59,9
4753,0.081,-0.086,-0.030,0.10,-0.01,-9.85,51,-59,9
4754,-0.041,-0.025,-0.091,0.10,-0.01,-9.85,51,-55,11
4755,-0.041,-0.086,0.031,0.03,-0.01,-9.85,51,-55,11
4756,-0.041,0.036,0.031,0.03,-0.01,-9.85,49,-55,7
4757,-0.041,-0.086,-0.030,0.10,-0.01,-9.85,49,-55,7
4758,0.081,0.097,0.031,0.10,-0.01,-9.85,54,-52,6
4759,0.142,-0.025,-0.091,0.10,-0.01,-9.85,54,-52,6
4760,0.142,-0.025,0.031,0.10,-0.09,-9.85,51,-53,9
4761,0.020,0.097,0.031,0.10,-0.09,-9.85,51,-53,9
4762,-0.102,0.097,0.092,0.10,-0.09,-9.85,50,-52,10
4763,0.020,-0.147,0.031,0.10,-0.09,-9.85,50,-52,10
4764,-0.041,0.036,-0.030,0.18,-0.09,-9.85,52,-54,10
4765,-0.041,-0.025,-0.030,0.18,-0.09,-9.85,52,-54,10
4766,-0.041,-0.025,-0.030,0.18,-0.09,-9.85,52,-60,10
4767,0.020,0.036,0.092,0.18,-0.09,-9.85,52,-60,10
4768,0.020,0.036,-0.030,0.18,-0.09,-9.85,49,-57,11
4769,0.142,0.097,0.031,0.18,-0.09,-9.85,49,-57,11
4770,-0.041,-0.025,0.031,0.18,-0.09,-9.85,48,-54,10
4771,-0.041,-0.025,0.031,0.18,-0.09,-9.85,48,-54,10
4772,-0.224,-0.025,0.154,0.18,-0.09,-9.77,54,-54,14
4773,0.081,0.036,-0.030,0.18,-0.09,-9.77,54,-54,14
4774,0.020,-0.086,-0.030,0.18,-0.09,-9.77,52,-50,6
4775,-0.041,0.036,0.031,0.10,-0.09,-9.77,52,-50,6
4776,0.020,0.158,-0.030,0.10,-0.09,-9.77,53,-51,5
4777,-0.041,-0.086,-0.030,0.10,-0.09,-9.77,53,-51,5
4778,-0.102,0.036,0.092,0.10,-0.09,-9.77,47,-57,11
4779,0.081,0.097,0.092,0.10,-0.09,-9.70,47,-57,11
4780,0.020,-0.086,-0.091,0.10,-0.09,-9.77,48,-50,10
4781,-0.041,0.036,-0.030,0.03,-0.01,-9.77,48,-50,10
4782,-0.102,-0.025,-0.030,0.03,-0.01,-9.77,48,-56,10
4783,0.081,0.036,0.031,0.03,-0.01,-9.77,48,-56,10
4784,0.020,-0.025,-0.091,0.03,-0.01,-9.77,45,-53,9
4785,-0.041,0.097,-0.030,0.03,-0.01,-9.77,45,-53,9
4786,-0.041,0.036,0.031,0.03,-0.01,-9.77,56,-50,6
4787,-0.041,0.036,0.031,0.03,-0.09,-9.77,56,-50,6
4788,0.142,-0.147,0.031,0.03,-0.09,-9.77,48,-50,8
4789,-0.163,-0.025,-0.030,0.10,-0.09,-9.77,48,-50,8
4790,0.020,-0.025,-0.030,0.10,-0.09,-9.77,51,-49,13
4791,0.020,0.036,0.031,0.10,-0.09,-9.77,51,-49,13
4792,0.020,-0.086,0.031,0.10,-0.09,-9.77,52,-54,8
4793,-0.041,-0.147,0.031,0.10,-0.01,-9.77,52,-54,8
4794,0.081,-0.147,-0.030,0.10,-0.01,-9.77,52,-52,12
4795,0.020,-0.025,-0.030,0.10,-0.09,-9.77,52,-52,12
4796,-0.041,-0.147,0.031,0.10,-0.09,-9.77,49,-57,9
4797,-0.041,0.097,-0.030,0.10,-0.01,-9.77,49,-57,9
4798,-0.041,0.036,-0.030,0.10,-0.01,-9.77,49,-55,13
4799,0.020,-0.208,0.031,0.10,-0.01,-9.85,49,-55,13
4800,-0.041,-0.025,0.031,0.10,-0.01,-9.85,49,-55,5
4801,0.081,0.036,-0.030,0.10,-0.01,-9.77,49,-55,5
4802,0.081,-0.025,0.031,0.10,-0.01,-9.77,48,-58,10
4803,-0.041,-0.086,0.031,0.18,-0.01,-9.85,48,-58,10
4804,0.020,-0.025,0.031,0.18,-0.01,-9.85,53,-55,3
4805,0.020,0.036,-0.030,0.10,-0.01,-9.85,53,-55,3
4806,-0.102,-0.086,0.031,0.10,-0.09,-9.77,43,-53,5
4807,-0.102,-0.025,0.031,0.18,-0.09,-9.77,43,-53,5
4808,-0.041,0.036,-0.030,0.18,-0.09,-9.77,46,-56,12
4809,0.081,-0.025,-0.030,0.18,-0.09,-9.77,46,-56,12
4810,-0.041,-0.147,-0.030,0.18,-0.09,-9.77,45,-53,5
4811,0.020,-0.086,-0.091,0.10,-0.01,-9.85,45,-53,5
4812,-0.041,-0.147,-0.091,0.10,-0.01,-9.85,53,-53,13
4813,0.020,-0.147,-0.030,0.10,-0.01,-9.85,53,-53,13
4814,0.020,-0.147,-0.030,0.10,-0.01,-9.85,50,-52,6
4815,0.020,0.036,-0.091,0.10,-0.01,-9.85,50,-52,6
4816,0.020,-0.147,-0.030,0.10,-0.01,-9.85,53,-51,7
4817,0.142,-0.025,0.031,0.10,-0.01,-9.85,53,-51,7
4818,0.142,0.036,-0.030,0.10,-0.01,-9.85,48,-54,6
4819,0.020,0.036,-0.030,0.10,-0.01,-9.85,48,-54,6
4820,0.081,0.036,-0.091,0.10,-0.01,-9.85,49,-51,9
4821,0.020,-0.025,0.031,0.10,-0.01,-9.77,49,-51,9
4822,0.081,0.036,-0.091,0.10,-0.01,-9.85,50,-46,8
4823,-0.041,-0.086,-0.030,0.10,-0.01,-9.85,50,-46,8
4824,-0.041,0.097,-0.030,0.10,-0.01,-9.85,50,-56,8
4825,-0.041,0.097,0.092,0.10,-0.01,-9.85,50,-56,8
4826,0.020,-0.086,0.031,0.10,-0.01,-9.85,48,-54,10
4827,-0.041,0.036,0.031,0.10,-0.01,-9.85,48,-54,10
4828,0.081,0.036,0.031,0.10,-0.01,-9.77,50,-54,4
4829,-0.041,-0.025,-0.030,0.10,-0.01,-9.77,50,-54,4
4830,0.020,-0.025,0.031,0.10,-0.01,-9.77,47,-55,9
4831,0.020,-0.025,-0.030,0.10,-0.01,-9.77,47,-55,9
4832,0.020,-0.147,-0.030,0.10,-0.01,-9.77,46,-56,6
4833,0.020,-0.086,-0.030,0.10,-0.01,-9.77,46,-56,6
4834,0.020,-0.086,0.031,0.10,-0.01,-9.77,49,-55,9
4835,0.081,0.097,0.031,0.10,-0.01,-9.77,49,-55,9
4836,-0.041,-0.025,-0.030,0.10,-0.01,-9.77,50,-50,14
4837,-0.041,0.036,0.092,0.10,-0.01,-9.77,50,-50,14
4838,0.020,0.036,0.031,0.10,-0.01,-9.77,47,-53,9
4839,0.020,0.097,-0.030,0.10,-0.01,-9.77,47,-53,9
4840,-0.041,0.097,0.031,0.10,-0.01,-9.77,48,-50,8
4841,0.081,0.036,-0.152,0.10,-0.01,-9.77,48,-50,8
4842,-0.102,0.036,-0.030,0.10,-0.01,-9.77,43,-51,9
4843,0.020,0.036,0.031,0.10,-0.01,-9.77,43,-51,9
4844,0.020,-0.025,0.031,0.10,-0.01,-9.77,46,-60,6
4845,-0.102,-0.086,-0.030,0.10,-0.01,-9.77,46,-60,6
4846,-0.041,0.036,0.031,0.10,-0.09,-9.77,48,-52,4
4847,0.020,0.036,0.092,0.10,-0.01,-9.77,48,-52,4
4848,0.020,-0.025,0.031,0.10,-0.01,-9.77,49,-57,5
4849,-0.041,-0.025,-0.030,0.18,-0.01,-9.77,49,-57,5
4850,0.020,-0.086,0.031,0.18,-0.01,-9.77,48,-54,10
4851,-0.041,-0.147,0.031,0.18,-0.01,-9.77,48,-54,10
4852,-0.102,-0.086,0.031,0.18,-0.01,-9.85,51,-51,9
4853,-0.041,-0.086,0.092,0.18,-0.01,-9.85,51,-51,9
4854,0.020,-0.025,0.031,0.18,-0.01,-9.85,50,-56,10
4855,-0.041,0.036,0.092,0.18,-0.01,-9.77,50,-56,10
4856,0.020,-0.086,-0.091,0.18,-0.01,-9.85,52,-52,12
4857,0.020,0.158,0.031,0.10,-0.01,-9.85,52,-52,12
4858,0.020,0.097,-0.030,0.10,-0.01,-9.85,44,-52,8
4859,0.020,-0.025,-0.030,0.10,-0.01,-9.85,44,-52,8
4860,0.020,0.036,-0.030,0.10,-0.01,-9.85,48,-56,12
4861,0.020,-0.208,-0.030,0.10,-0.01,-9.85,48,-56,12
4862,0.020,0.036,-0.091,0.18,-0.01,-9.85,53,-49,3
4863,0.020,-0.025,-0.030,0.10,-0.01,-9.85,53,-49,3
4864,0.081,0.097,-0.091,0.10,-0.01,-9.85,47,-55,7
4865,-0.041,-0.086,0.031,0.10,-0.01,-9.85,47,-55,7
4866,0.020,-0.025,0.092,0.18,-0.01,-9.77,49,-51,5
4867,-0.041,0.036,-0.091,0.18,-0.01,-9.77,49,-51,5
4868,0.020,-0.025,0.031,0.18,-0.01,-9.85,51,-53,9
4869,-0.041,-0.025,-0.030,0.18,-0.01,-9.77,51,-53,9
4870,0.020,0.036,-0.091,0.18,-0.01,-9.77,47,-57,11
4871,-0.041,0.036,-0.091,0.18,-0.01,-9.77,47,-57,11
4872,-0.102,-0.025,0.031,0.18,-0.01,-9.77,48,-56,10
4873,0.081,0.036,0.031,0.10,-0.01,-9.77,48,-56,10
4874,0.020,0.097,0.031,0.10,-0.09,-9.77,46,-56,4
4875,-0.041,0.036,0.031,0.10,-0.09,-9.77,46,-56,4
4876,0.020,0.097,-0.030,0.10,-0.09,-9.77,49,-53,7
4877,-0.041,-0.025,-0.030,0.10,-0.09,-9.77,49,-53,7
4878,0.081,-0.025,-0.030,0.10,-0.01,-9.77,50,-54,6
4879,-0.102,-0.086,-0.030,0.10,-0.01,-9.77,50,-54,6
4880,0.081,0.036,0.031,0.10,-0.01,-9.77,49,-55,7
4881,0.081,-0.025,0.092,0.10,-0.01,-9.77,49,-55,7
4882,-0.041,-0.025,0.031,0.10,-0.01,-9.77,51,-53,5
4883,0.081,0.097,0.092,0.10,-0.01,-9.77,51,-53,5
4884,0.081,-0.025,-0.091,0.10,-0.01,-9.85,50,-56,2
4885,0.020,0.036,0.092,0.10,-0.01,-9.77,50,-56,2
4886,0.020,-0.025,0.092,0.10,-0.01,-9.77,54,-52,10
4887,-0.041,-0.025,0.031,0.10,-0.09,-9.77,54,-52,10
4888,0.020,-0.086,0.031,0.10,-0.09,-9.77,46,-56,6
4889,0.020,-0.086,-0.091,0.10,-0.09,-9.77,46,-56,6
4890,0.081,0.097,-0.091,0.10,-0.09,-9.77,50,-58,8
4891,0.020,-0.086,0.031,0.10,-0.09,-9.77,50,-58,8
4892,0.081,-0.025,-0.030,0.10,-0.09,-9.77,54,-56,8
4893,0.081,-0.086,0.031,0.10,-0.09,-9.77,54,-56,8
4894,0.081,0.036,-0.030,0.18,-0.09,-9.77,49,-55,9
4895,0.081,0.097,-0.091,0.18,-0.09,-9.77,49,-55,9
4896,0.081,0.097,0.031,0.18,-0.09,-9.77,48,-50,10
4897,-0.041,0.036,0.092,0.18,-0.09,-9.85,48,-50,10
4898,-0.102,-0.086,-0.091,0.10,-0.09,-9.85,50,-50,8
4899,-0.041,0.036,0.092,0.18,-0.09,-9.85,50,-50,8
4900,0.020,-0.025,0.031,0.18,-0.09,-9.85,56,-54,12
4901,0.081,-0.025,-0.030,0.18,-0.09,-9.85,56,-54,12
4902,-0.102,-0.025,-0.152,0.18,-0.01,-9.85,50,-54,8
4903,-0.041,0.036,-0.030,0.18,-0.01,-9.85,50,-54,8
4904,0.020,-0.086,0.092,0.18,-0.09,-9.85,49,-49,7
4905,0.142,0.097,0.092,0.18,-0.09,-9.85,49,-49,7
4906,0.081,-0.025,-0.030,0.18,-0.09,-9.85,48,-56,8
4907,0.020,-0.025,-0.030,0.18,-0.09,-9.85,48,-56,8
4908,0.020,-0.147,0.092,0.10,-0.09,-9.85,48,-52,10
4909,0.142,-0.086,0.031,0.10,-0.09,-9.77,48,-52,10
4910,-0.102,-0.086,-0.030,0.10,-0.09,-9.77,55,-55,7
4911,0.081,-0.025,-0.030,0.10,-0.09,-9.77,55,-55,7
4912,0.081,-0.147,-0.030,0.10,-0.09,-9.77,46,-52,6
4913,-0.041,-0.086,0.031,0.10,-0.01,-9.85,46,-52,6
4914,0.142,-0.025,0.092,0.10,-0.01,-9.85,54,-52,12
4915,0.020,0.219,-0.030,0.10,-0.01,-9.85,54,-52,12
4916,0.020,-0.025,0.031,0.10,-0.01,-9.85,49,-53,5
4917,-0.041,0.097,-0.091,0.10,-0.01,-9.85,49,-53,5
4918,0.081,0.097,0.031,0.10,-0.01,-9.85,50,-52,8
4919,0.020,-0.086,-0.030,0.10,-0.01,-9.93,50,-52,8
4920,0.020,-0.025,-0.030,0.10,-0.01,-9.85,51,-53,5
4921,-0.041,-0.086,-0.091,0.10,-0.01,-9.85,51,-53,5
4922,-0.041,0.036,-0.030,0.10,-0.01,-9.85,53,-53,9
4923,-0.102,-0.025,0.031,0.10,-0.01,-9.85,53,-53,9
4924,0.081,0.036,-0.030,0.10,-0.01,-9.85,52,-52,10
4925,-0.041,-0.086,0.031,0.10,-0.01,-9.77,52,-52,10
4926,0.020,-0.025,0.031,0.10,-0.09,-9.77,48,-50,12
4927,-0.163,0.036,0.092,0.10,-0.09,-9.77,48,-50,12
4928,-0.468,-0.086,0.031,0.10,-0.01,-9.77,49,-57,7
4929,-0.590,-0.574,-0.396,0.10,-0.09,-9.77,49,-57,7
4930,-0.468,-0.147,-1.067,0.10,-0.09,-9.77,46,-54,10
4931,0.142,0.525,-0.884,0.03,-0.09,-9.85,46,-54,10
4932,0.569,0.464,0.154,0.03,-0.01,-9.77,49,-53,7
4933,0.447,0.219,0.703,0.10,-0.01,-9.77,49,-53,7
4934,0.508,0.036,0.520,0.10,-0.01,-9.77,50,-52,8
4935,0.631,0.403,0.337,0.10,-0.01,-9.85,50,-52,8
4936,-0.224,0.525,-0.030,0.10,-0.09,-9.85,46,-54,6
4937,-1.017,-0.025,-0.457,0.10,-0.01,-9.85,46,-54,6
4938,-0.956,-0.879,-0.213,0.10,-0.01,-9.85,54,-52,8
4939,-0.224,-0.879,0.031,0.10,-0.01,-9.85,54,-52,8
4940,0.447,-0.452,-0.030,0.10,-0.01,-9.85,50,-56,10
4941,0.569,-0.330,0.276,0.10,-0.09,-9.85,50,-56,10
4942,0.325,0.036,0.886,0.10,-0.09,-9.85,51,-53,7
4943,0.264,0.403,0.703,0.10,-0.09,-9.85,51,-53,7
4944,0.203,0.586,0.031,0.10,-0.01,-9.77,51,-55,7
4945,0.081,0.708,-0.152,0.10,-0.01,-9.77,51,-55,7
4946,0.081,0.280,0.092,0.10,-0.01,-9.77,50,-54,6
4947,-0.163,-0.147,0.276,0.10,-0.09,-9.77,50,-54,6
4948,-0.468,-0.452,0.215,0.10,-0.09,-9.77,48,-52,8
4949,-0.346,-0.635,-0.213,0.10,-0.01,-9.77,48,-52,8
4950,0.081,-0.513,-0.396,0.10,-0.09,-9.77,45,-59,15
4951,0.447,-0.025,-0.335,0.10,-0.09,-9.77,45,-59,15
4952,0.631,0.708,0.337,0.18,-0.09,-9.77,48,-52,8
4953,0.569,0.769,0.703,0.10,-0.16,-9.77,48,-52,8
4954,0.631,-0.391,0.276,0.10,-0.09,-9.77,49,-61,3
4955,1.241,-0.818,-0.274,0.10,-0.09,-9.77,49,-61,3
4956,1.363,-0.330,-0.640,0.10,-0.09,-9.85,52,-56,8
4957,0.569,-0.025,-0.396,0.10,-0.09,-9.77,52,-56,8
4958,-0.834,-0.330,0.276,0.10,-0.01,-9.77,47,-53,13
4959,-1.750,-0.452,0.825,0.10,-0.01,-9.77,47,-53,13
4960,-1.140,0.342,0.703,0.10,-0.01,-9.77,49,-51,9
4961,-0.468,1.074,-0.518,0.10,-0.01,-9.85,49,-51,9
4962,-0.468,0.708,-0.884,0.10,-0.01,-9.85,47,-53,9
4963,0.020,0.036,-0.213,0.18,-0.09,-9.85,47,-53,9
4964,0.447,-0.208,0.154,0.10,-0.16,-9.77,47,-49,9
4965,0.569,-0.513,0.276,0.10,-0.16,-9.77,47,-49,9
4966,0.692,-0.452,0.398,0.10,-0.09,-9.77,49,-55,13
4967,0.692,-0.513,0.520,0.18,-0.09,-9.77,49,-55,13
4968,0.325,-0.086,0.154,0.10,-0.09,-9.77,48,-56,6
4969,-0.041,0.097,-0.518,0.10,-0.09,-9.77,48,-56,6
4970,-0.407,-0.025,-0.457,0.10,-0.01,-9.85,51,-57,7
4971,-0.224,-0.147,-0.274,0.10,-0.01,-9.77,51,-57,7
4972,-0.224,0.036,-0.091,0.10,-0.01,-9.77,54,-52,10
4973,-0.651,-0.086,-0.030,0.10,-0.01,-9.77,54,-52,10
4974,-0.529,-0.086,-0.030,0.10,-0.01,-9.85,52,-52,12
4975,-0.102,0.158,0.031,0.10,-0.01,-9.85,52,-52,12
4976,0.508,0.280,-0.091,0.10,-0.01,-9.85,51,-55,15
4977,0.508,0.525,-0.396,0.10,-0.09,-9.85,51,-55,15
4978,0.447,0.280,-0.274,0.10,-0.09,-9.77,44,-54,6
4979,-0.041,0.097,-0.152,0.18,-0.09,-9.77,44,-54,6
4980,-0.163,-0.025,0.092,0.18,-0.09,-9.77,48,-52,10
4981,-0.102,-0.208,-0.030,0.18,-0.09,-9.77,48,-52,10
4982,-0.163,-0.452,-0.030,0.18,-0.09,-9.77,51,-51,9
4983,-0.102,-0.391,0.092,0.18,-0.09,-9.77,51,-51,9
4984,0.081,-0.330,0.031,0.18,-0.09,-9.85,49,-51,7
4985,0.081,0.097,-0.213,0.10,-0.01,-9.85,49,-51,7
4986,0.142,0.097,-0.213,0.10,-0.01,-9.85,45,-55,7
4987,0.020,0.219,-0.213,0.10,-0.01,-9.85,45,-55,7
4988,-0.041,0.158,0.215,0.10,-0.01,-9.77,55,-53,11
4989,0.020,0.097,0.276,0.10,-0.01,-9.85,55,-53,11
4990,0.081,0.158,0.154,0.18,-0.01,-9.85,50,-52,8
4991,0.142,0.097,0.092,0.18,-0.01,-9.85,50,-52,8
4992,0.203,-0.086,-0.152,0.18,-0.01,-9.77,56,-54,6
4993,0.264,-0.208,-0.091,0.10,-0.01,-9.77,56,-54,6
4994,0.020,-0.208,-0.091,0.10,-0.01,-9.77,50,-50,10
4995,-0.224,0.036,-0.152,0.18,-0.01,-9.85,50,-50,10
4996,-0.285,-0.025,-0.030,0.10,-0.01,-9.85,45,-51,11
4997,-0.285,0.036,0.154,0.10,-0.01,-9.85,45,-51,11
4998,-0.285,0.097,0.154,0.10,-0.01,-9.77,49,-51,11
4999,-0.041,-0.025,0.031,0.10,-0.01,-9.85,49,-51,11
5000,0.203,0.036,-0.030,0.10,-0.01,-9.85,55,-55,9
5001,0.325,0.036,0.092,0.10,-0.01,-9.85,55,-55,9
5002,0.325,-0.147,0.031,0.10,-0.01,-9.85,47,-53,15
5003,0.264,-0.147,0.276,0.10,-0.01,-9.85,47,-53,15
5004,0.142,-0.269,0.154,0.10,-0.01,-9.85,52,-54,4
5005,0.020,-0.147,0.154,0.10,-0.01,-9.85,52,-54,4
5006,-0.041,0.036,0.031,0.10,-0.01,-9.77,48,-54,6
5007,-0.224,0.036,0.031,0.10,-0.01,-9.77,48,-54,6
5008,-0.346,0.036,0.215,0.10,-0.01,-9.77,51,-55,13
5009,-0.285,0.036,0.031,0.10,-0.09,-9.77,51,-55,13
5010,-0.102,0.097,0.031,0.10,-0.09,-9.77,50,-54,8
5011,0.203,0.036,0.092,0.10,-0.09,-9.77,50,-54,8
5012,0.386,-0.269,0.092,0.10,-0.01,-9.77,50,-54,10
5013,0.325,-0.269,-0.030,0.10,-0.01,-9.77,50,-54,10
5014,0.203,-0.269,-0.091,0.10,-0.01,-9.77,53,-53,11
5015,0.020,0.097,0.031,0.10,-0.01,-9.85,53,-53,11
5016,-0.285,0.097,0.337,0.10,-0.01,-9.77,50,-54,10
5017,-0.407,0.158,0.154,0.10,-0.01,-9.77,50,-54,10
5018,-0.529,0.219,-0.091,0.10,0.07,-9.77,48,-54,10
5019,-0.468,0.097,-0.091,0.10,-0.01,-9.77,48,-54,10
5020,-0.346,0.097,-0.091,0.10,-0.01,-9.77,54,-56,10
5021,-0.224,0.097,0.215,0.10,-0.01,-9.77,54,-56,10
5022,-0.102,-0.025,0.215,0.10,-0.01,-9.77,53,-53,13
5023,-0.041,-0.147,0.276,0.10,-0.01,-9.85,53,-53,13
5024,0.508,-0.452,0.276,0.10,-0.09,-9.85,45,-55,7
5025,0.814,-0.147,-0.213,0.10,-0.09,-9.85,45,-55,7
5026,0.875,-0.086,-0.518,0.10,-0.09,-9.85,52,-52,8
5027,0.814,-0.269,-0.152,0.10,-0.09,-9.85,52,-52,8
5028,0.386,-0.208,-0.091,0.10,-0.09,-9.85,52,-48,6
5029,0.020,-0.147,-0.213,0.03,-0.09,-9.85,52,-48,6
5030,-0.041,-0.025,-0.335,0.10,-0.01,-9.77,51,-57,13
5031,0.020,0.097,-0.091,0.10,-0.01,-9.85,51,-57,13
5032,-0.041,0.097,-0.274,0.10,-0.01,-9.85,52,-54,8
5033,-0.163,0.219,-0.457,0.10,-0.01,-9.85,52,-54,8
5034,-0.163,0.403,-0.457,0.10,-0.01,-9.85,48,-54,8
5035,0.447,0.342,-0.091,0.10,-0.01,-9.85,48,-54,8
5036,0.508,-0.025,-0.335,0.10,-0.01,-9.77,51,-51,5
5037,0.447,-0.025,-0.457,0.10,-0.01,-9.77,51,-51,5
5038,0.325,-0.208,-0.091,0.10,-0.01,-9.77,55,-59,9
5039,0.325,-0.147,-0.030,0.10,-0.09,-9.85,55,-59,9
5040,0.020,-0.147,-0.030,0.10,-0.09,-9.77,51,-55,9
5041,-0.102,0.036,0.154,0.18,-0.01,-9.77,51,-55,9
5042,-0.163,-0.025,0.276,0.18,-0.01,-9.77,54,-56,4
5043,0.020,0.403,0.520,0.18,-0.01,-9.77,54,-56,4
5044,-0.285,0.464,0.520,0.18,-0.01,-9.77,46,-54,6
5045,-0.346,0.280,0.703,0.18,-0.01,-9.77,46,-54,6
5046,-0.651,-0.208,0.398,0.18,-0.01,-9.77,53,-49,9
5047,-0.407,-0.391,-0.213,0.10,-0.01,-9.77,53,-49,9
5048,-0.163,-0.330,-0.579,0.10,-0.01,-9.77,50,-58,14
5049,0.264,-0.696,-0.274,0.10,-0.09,-9.77,50,-58,14
5050,0.142,-0.330,-0.030,0.10,-0.09,-9.77,49,-55,11
5051,0.569,-0.147,0.398,0.10,-0.09,-9.77,49,-55,11
5052,0.508,0.342,0.459,0.10,-0.01,-9.77,49,-59,11
5053,0.447,0.769,0.092,0.10,-0.01,-9.85,49,-59,11
5054,0.203,0.586,-0.274,0.18,-0.01,-9.85,49,-49,9
5055,-0.102,0.586,-0.335,0.18,-0.01,-9.85,49,-49,9
5056,-0.590,0.280,-0.274,0.10,-0.01,-9.85,48,-50,6
5057,-0.773,-0.330,-0.152,0.10,-0.01,-9.85,48,-50,6
5058,-0.590,-0.574,0.215,0.10,-0.01,-9.85,51,-53,13
5059,-0.163,-0.513,0.337,0.10,-0.01,-9.85,51,-53,13
5060,0.447,-0.391,-0.030,0.10,-0.01,-9.85,50,-50,8
5061,0.447,-0.086,-0.091,0.10,-0.01,-9.77,50,-50,8
5062,0.569,0.097,-0.091,0.10,-0.09,-9.77,52,-54,10
5063,0.447,0.280,-0.030,0.10,-0.01,-9.77,52,-54,10
5064,0.142,0.342,-0.030,0.10,-0.01,-9.77,50,-52,10
5065,-0.163,0.280,-0.030,0.10,-0.01,-9.77,50,-52,10
5066,-0.407,-0.086,0.154,0.10,-0.01,-9.77,49,-51,7
5067,-0.285,-0.086,0.215,0.10,-0.01,-9.77,49,-51,7
5068,-0.224,-0.147,0.031,0.10,-0.01,-9.77,52,-58,10
5069,-0.102,-0.025,-0.030,0.10,-0.01,-9.77,52,-58,10
5070,0.020,0.097,-0.091,0.18,-0.01,-9.77,52,-50,10
5071,0.081,0.219,-0.152,0.18,-0.09,-9.77,52,-50,10
5072,-0.041,0.158,-0.030,0.18,-0.09,-9.77,49,-51,7
5073,0.081,-0.086,0.154,0.18,-0.09,-9.77,49,-51,7
5074,0.081,-0.330,0.031,0.18,-0.09,-9.85,52,-50,10
5075,0.081,-0.330,0.092,0.18,-0.09,-9.85,52,-50,10
5076,0.203,-0.147,0.092,0.18,-0.09,-9.85,53,-55,11
5077,0.081,-0.147,-0.030,0.18,-0.09,-9.77,53,-55,11
5078,0.020,0.097,-0.152,0.10,-0.09,-9.85,50,-56,8
5079,-0.163,0.219,0.092,0.10,-0.09,-9.85,50,-56,8
5080,-0.102,0.219,0.092,0.10,-0.01,-9.85,51,-53,11
5081,-0.224,0.158,-0.030,0.10,-0.01,-9.85,51,-53,11
5082,-0.102,0.097,0.031,0.10,-0.01,-9.77,52,-48,10
5083,-0.041,0.097,0.215,0.10,-0.01,-9.77,52,-48,10
5084,0.081,-0.147,0.276,0.10,-0.01,-9.85,53,-53,13
5085,0.020,-0.025,0.092,0.10,-0.01,-9.77,53,-53,13
5086,-0.346,0.464,0.520,0.10,-0.01,-9.70,48,-54,8
5087,-1.201,-1.673,-0.091,0.10,-0.01,-9.77,48,-54,8
5088,-0.407,-1.856,-1.433,0.18,-0.09,-9.77,52,-56,10
5089,-0.773,2.905,-1.311,0.18,-0.09,-9.85,52,-56,10
5090,0.447,0.830,1.008,0.10,-0.09,-9.77,54,-52,10
5091,0.997,-0.879,1.679,0.10,-0.01,-9.70,54,-52,10
5092,0.814,-0.635,0.276,0.10,-0.01,-9.77,51,-53,7
5093,3.255,-1.368,-0.457,0.18,-0.01,-9.77,51,-53,7
5094,3.194,2.112,-1.250,0.18,-0.16,-9.85,48,-54,8
5095,-0.285,0.830,-0.335,0.10,-0.16,-9.77,48,-54,8
5096,-1.689,-2.649,0.581,0.10,-0.01,-9.70,48,-52,10
5097,-0.834,-1.673,0.886,0.10,0.14,-9.77,48,-52,10
5098,-0.590,-0.208,0.215,0.10,0.07,-9.77,45,-51,7
5099,-0.468,0.708,-0.518,0.18,-0.01,-9.85,45,-51,7
5100,-1.323,0.586,-0.396,0.18,-0.09,-9.85,43,-59,5
5101,-1.628,0.830,-0.152,0.10,-0.09,-9.77,43,-59,5
5102,-0.224,0.525,-0.884,0.03,-0.01,-9.77,53,-49,11
5103,0.447,0.464,-0.579,0.10,0.07,-9.77,53,-49,11
5104,0.508,0.891,0.092,0.10,-0.01,-9.77,52,-52,8
5105,1.241,0.403,0.520,0.10,-0.16,-9.85,52,-52,8
5106,0.325,-0.025,0.886,0.10,-0.16,-9.77,50,-56,8
5107,-0.041,-0.208,1.374,0.10,-0.16,-9.77,50,-56,8
5108,0.875,-0.757,0.276,0.10,-0.01,-9.77,50,-54,10
5109,0.753,-0.635,-0.518,0.18,0.07,-9.77,50,-54,10
5110,-0.285,-0.391,-0.823,0.18,0.07,-9.77,45,-53,7
5111,-0.651,-0.574,-0.091,0.18,-0.01,-9.77,45,-53,7
5112,-1.750,-0.635,0.337,0.18,-0.01,-9.77,50,-58,6
5113,-1.750,-0.086,0.764,0.10,-0.01,-9.85,50,-58,6
5114,-0.773,0.036,0.642,0.10,0.07,-9.85,48,-58,8
5115,0.020,0.403,0.215,0.10,-0.01,-9.85,48,-58,8
5116,0.814,0.891,-0.335,0.10,-0.09,-9.85,47,-55,7
5117,1.302,0.708,-0.213,0.10,-0.16,-9.85,47,-55,7
5118,1.241,0.647,-0.030,0.10,-0.16,-9.85,49,-49,3
5119,1.241,0.036,-0.091,0.03,-0.09,-9.85,49,-49,3
5120,0.631,-0.330,-0.091,0.03,-0.01,-9.77,47,-55,11
5121,-0.224,-0.574,0.215,0.03,-0.01,-9.77,47,-55,11
5122,-0.468,-0.818,0.092,0.10,-0.01,-9.77,47,-51,9
5123,-0.651,-0.574,-0.030,0.10,-0.01,-9.85,47,-51,9
5124,-0.773,-0.147,-0.091,0.03,-0.01,-9.85,49,-49,15
5125,-0.407,-0.086,-0.030,0.03,-0.01,-9.77,49,-49,15
5126,-0.163,-0.025,-0.030,0.03,-0.01,-9.85,53,-51,9
5127,0.142,0.342,-0.091,0.03,-0.01,-9.85,53,-51,9
5128,0.386,0.586,0.092,0.03,-0.09,-9.85,44,-56,10
5129,0.508,0.525,0.337,0.03,-0.09,-9.85,44,-56,10
5130,0.569,-0.086,0.459,0.03,-0.09,-9.85,53,-55,5
5131,0.692,-0.269,0.337,0.03,-0.09,-9.85,53,-55,5
5132,0.569,-0.147,0.031,0.03,-0.09,-9.85,48,-52,12
5133,0.142,-0.025,-0.152,0.10,-0.09,-9.85,48,-52,12
5134,-0.407,-0.025,-0.091,0.10,-0.09,-9.85,55,-51,3
5135,-1.017,-0.391,0.031,0.10,-0.01,-9.85,55,-51,3
5136,-0.834,-0.635,-0.152,0.10,-0.01,-9.85,52,-54,10
5137,-0.468,-0.208,-0.396,0.10,-0.01,-9.85,52,-54,10
5138,0.020,0.036,-0.274,0.10,-0.09,-9.85,47,-53,9
5139,0.508,0.158,0.092,0.10,-0.09,-9.85,47,-53,9
5140,0.692,0.036,-0.091,0.10,-0.09,-9.85,51,-55,9
5141,0.997,0.158,-0.030,0.03,-0.09,-9.85,51,-55,9
5142,1.058,0.342,0.031,0.03,-0.09,-9.85,51,-57,5
5143,0.631,0.464,0.031,0.10,-0.01,-9.85,51,-57,5
5144,-0.224,0.097,0.215,0.10,-0.01,-9.77,49,-55,5
5145,-0.895,0.158,0.337,0.10,-0.01,-9.85,49,-55,5
5146,-1.506,0.036,0.337,0.10,-0.01,-9.85,50,-54,14
5147,-1.201,-0.330,0.276,0.18,-0.01,-9.85,50,-54,14
5148,-0.651,-0.635,0.154,0.10,-0.01,-9.77,50,-52,10
5149,0.142,-0.635,-0.152,0.10,-0.01,-9.77,50,-52,10
5150,0.569,-0.452,-0.213,0.10,-0.01,-9.85,53,-55,11
5151,0.814,-0.147,-0.030,0.10,-0.01,-9.85,53,-55,11
5152,0.875,-0.208,0.215,0.10,-0.09,-9.85,52,-54,6
5153,0.508,0.219,0.581,0.10,-0.09,-9.85,52,-54,6
5154,0.081,-0.147,0.215,0.10,-0.01,-9.85,44,-52,4
5155,-0.102,0.647,-0.152,0.10,-0.01,-9.85,44,-52,4
5156,-0.529,1.257,-0.701,0.10,-0.01,-9.85,54,-54,10
5157,-0.590,0.342,-0.335,0.18,-0.01,-9.85,54,-54,10
5158,-0.407,0.219,0.215,0.10,-0.01,-9.85,48,-54,8
5159,-0.163,-0.269,0.459,0.10,-0.01,-9.85,48,-54,8
5160,0.142,-0.025,0.154,0.10,-0.01,-9.85,48,-56,8
5161,-0.102,0.280,0.398,0.10,-0.09,-9.85,48,-56,8
5162,-0.224,-0.513,0.398,0.10,-0.09,-9.77,49,-55,9
5163,0.325,-0.940,0.276,0.10,-0.09,-9.77,49,-55,9
5164,0.569,-1.001,-0.823,0.03,-0.01,-9.77,51,-49,13
5165,1.058,-0.513,-1.128,0.03,-0.09,-9.77,51,-49,13
5166,0.875,0.036,-0.518,0.03,-0.09,-9.77,50,-56,16
5167,0.020,0.403,0.215,0.10,-0.09,-9.77,50,-56,16
5168,-0.407,0.708,0.215,0.10,-0.09,-9.77,51,-59,9
5169,-0.285,1.135,0.031,0.10,-0.01,-9.77,51,-59,9
5170,0.081,1.013,-0.091,0.10,-0.01,-9.85,50,-50,8
5171,0.569,0.647,-0.396,0.10,-0.09,-9.77,50,-50,8
5172,0.569,-0.086,-0.152,0.18,-0.01,-9.77,51,-55,7
5173,0.692,-0.757,0.398,0.18,-0.01,-9.77,51,-55,7
5174,0.447,-0.757,0.581,0.18,-0.01,-9.85,47,-55,7
5175,-0.163,-0.696,0.092,0.10,-0.01,-9.85,47,-55,7
5176,-0.590,-0.391,-0.030,0.18,-0.01,-9.85,46,-60,8
5177,-0.834,-0.513,-0.091,0.10,-0.01,-9.85,46,-60,8
5178,-0.834,-0.025,-0.335,0.10,-0.01,-9.85,49,-57,9
5179,-0.590,0.280,-0.762,0.10,-0.01,-9.85,49,-57,9
5180,0.142,0.464,-0.274,0.10,-0.01,-9.85,50,-50,4
5181,0.936,0.525,0.764,0.10,-0.01,-9.85,50,-50,4
5182,0.814,0.464,0.764,0.10,-0.09,-9.85,47,-49,11
5183,0.325,0.219,0.215,0.10,-0.09,-9.85,47,-49,11
5184,0.325,0.525,-0.152,0.10,-0.01,-9.85,49,-53,9
5185,0.264,0.097,-0.335,0.10,-0.01,-9.85,49,-53,9
5186,-0.224,-0.269,-0.396,0.10,-0.01,-9.85,49,-51,9
5187,-0.773,-0.391,-0.274,0.10,-0.01,-9.85,49,-51,9
5188,-0.895,-0.635,0.215,0.10,-0.01,-9.85,51,-55,9
5189,-0.529,-0.330,0.276,0.10,-0.01,-9.85,51,-55,9
5190,0.020,-0.269,0.215,0.18,-0.01,-9.85,46,-46,6
5191,0.447,-0.147,-0.030,0.10,-0.01,-9.85,46,-46,6
5192,0.692,0.158,-0.274,0.10,-0.01,-9.85,51,-51,11
5193,0.631,0.280,-0.091,0.10,-0.01,-9.77,51,-51,11
5194,0.325,0.525,0.092,0.10,-0.01,-9.85,52,-58,8
5195,-0.163,0.464,0.031,0.10,-0.01,-9.85,52,-58,8
5196,-0.468,0.280,0.031,0.10,-0.01,-9.85,47,-49,5
5197,-0.407,-0.025,0.154,0.10,-0.01,-9.85,47,-49,5
5198,-0.224,0.036,-0.030,0.10,-0.01,-9.85,53,-55,7
5199,-0.102,-0.208,-0.152,0.10,-0.01,-9.85,53,-55,7
5200,-0.163,-0.208,-0.213,0.10,-0.01,-9.77,50,-54,10
5201,-0.285,-0.269,-0.213,0.10,-0.01,-9.77,50,-54,10
5202,-0.346,-0.818,-0.762,0.10,-0.01,-9.77,48,-52,10
5203,-0.163,-0.574,-1.128,0.10,-0.09,-9.85,48,-52,10
5204,0.325,1.013,-0.518,0.18,-0.09,-9.85,51,-51,9
5205,0.264,1.501,1.069,0.18,-0.09,-9.77,51,-51,9
5206,0.142,0.280,1.618,0.18,-0.09,-9.77,49,-53,9
5207,0.875,-0.757,0.825,0.10,-0.01,-9.77,49,-53,9
5208,2.034,-0.208,-0.335,0.18,-0.01,-9.85,51,-57,11
5209,1.912,0.464,-1.006,0.18,-0.09,-9.85,51,-57,11
5210,0.325,-0.452,-0.945,0.18,-0.09,-9.85,51,-51,11
5211,-1.201,-1.856,0.276,0.18,-0.01,-9.77,51,-51,11
5212,-1.017,-1.429,0.947,0.10,0.07,-9.77,47,-53,13
5213,-0.407,-0.086,0.398,0.10,0.07,-9.85,47,-53,13
5214,-0.590,0.525,0.154,0.10,-0.01,-9.85,53,-51,9
5215,-0.773,0.830,0.337,0.18,-0.01,-9.85,53,-51,9
5216,-0.407,0.769,0.398,0.10,-0.01,-9.85,52,-56,4
5217,-0.102,0.525,-0.274,0.03,-0.01,-9.77,52,-56,4
5218,0.447,0.158,-0.579,0.03,-0.01,-9.77,50,-56,8
5219,0.631,-0.086,-0.030,0.10,-0.01,-9.85,50,-56,8
5220,0.386,-0.086,0.092,0.10,-0.09,-9.85,49,-51,7
5221,-0.529,-0.269,-0.091,0.10,-0.09,-9.77,49,-51,7
5222,-0.834,-0.574,0.154,0.10,-0.09,-9.77,53,-59,7
5223,-0.224,-0.391,0.215,0.10,-0.01,-9.85,53,-59,7
5224,0.508,-0.147,-0.457,0.10,-0.01,-9.85,47,-57,9
5225,0.386,0.342,-1.006,0.10,-0.01,-9.85,47,-57,9
5226,0.081,-0.025,-0.640,0.10,-0.01,-9.85,48,-54,8
5227,-0.102,-0.513,-0.091,0.10,-0.01,-9.85,48,-54,8
5228,-0.102,-0.452,0.031,0.10,-0.01,-9.85,50,-56,6
5229,-0.163,0.158,-0.213,0.10,0.07,-9.85,50,-56,6
5230,-0.285,0.769,-0.152,0.10,0.07,-9.85,50,-54,8
5231,-0.529,0.586,0.154,0.10,-0.01,-9.85,50,-54,8
5232,-0.468,0.280,-0.152,0.10,-0.01,-9.85,52,-54,8
5233,0.081,0.586,-0.457,0.10,-0.01,-9.85,52,-54,8
5234,0.447,0.708,-0.335,0.10,-0.01,-9.85,48,-58,8
5235,0.814,0.036,0.459,0.10,-0.01,-9.85,48,-58,8
5236,0.386,-0.757,1.069,0.18,-0.01,-9.77,50,-54,2
5237,-0.041,-0.696,0.947,0.18,-0.01,-9.85,50,-54,2
5238,-0.102,-0.574,0.092,0.18,-0.01,-9.85,51,-55,15
5239,-0.407,-0.208,-0.457,0.18,-0.09,-9.85,51,-55,15
5240,-0.834,-0.391,-0.335,0.18,-0.09,-9.85,52,-52,12
5241,-0.346,-0.818,0.092,0.10,-0.09,-9.85,52,-52,12
5242,0.081,-0.330,0.215,0.10,-0.09,-9.85,53,-53,7
5243,0.447,0.097,-0.030,0.10,-0.09,-9.85,53,-53,7
5244,0.753,0.525,0.031,0.10,-0.16,-9.85,50,-54,16
5245,0.569,0.464,0.276,0.10,-0.16,-9.85,50,-54,16
5246,0.569,0.342,0.276,0.03,-0.09,-9.85,51,-53,13
5247,0.386,0.280,-0.213,0.03,-0.01,-9.77,51,-53,13
5248,0.020,0.219,-0.457,0.10,-0.01,-9.77,47,-57,9
5249,-0.041,0.036,-0.335,0.10,-0.01,-9.77,47,-57,9
5250,-0.285,-0.147,-0.091,0.10,-0.01,-9.77,49,-53,3
5251,-0.346,-0.330,0.154,0.10,-0.01,-9.77,49,-53,3
5252,-0.163,-0.452,0.092,0.10,-0.01,-9.77,43,-57,11
5253,0.264,-0.452,0.215,0.10,-0.01,-9.77,43,-57,11
5254,0.753,-0.147,0.337,0.18,-0.01,-9.77,52,-58,8
5255,1.058,0.036,0.337,0.18,-0.01,-9.77,52,-58,8
5256,0.692,0.097,0.276,0.18,-0.01,-9.77,47,-53,11
5257,0.203,-0.147,0.337,0.10,-0.01,-9.77,47,-53,11
5258,-0.041,-0.269,0.092,0.10,-0.01,-9.77,46,-52,8
5259,-0.285,-0.269,-0.152,0.10,-0.01,-9.77,46,-52,8
5260,-0.407,0.036,-0.274,0.10,-0.01,-9.77,50,-50,8
5261,-0.529,-0.147,-0.030,0.03,-0.01,-9.77,50,-50,8
5262,-0.041,-0.330,0.215,0.03,-0.01,-9.77,51,-53,9
5263,0.447,-0.086,0.276,0.03,0.07,-9.77,51,-53,9
5264,0.753,0.403,0.092,0.03,-0.01,-9.85,47,-53,13
5265,0.508,0.342,-0.091,0.03,-0.01,-9.85,47,-53,13
5266,0.020,0.280,0.154,0.10,-0.01,-9.77,53,-53,7
5267,-0.285,0.158,0.154,0.10,-0.01,-9.77,53,-53,7
5268,-0.590,-0.208,-0.091,0.10,-0.01,-9.77,51,-53,9
5269,-0.346,-0.330,-0.396,0.10,-0.01,-9.77,51,-53,9
5270,-0.041,-0.269,-0.152,0.10,-0.01,-9.77,53,-51,9
5271,0.142,-0.269,0.276,0.10,-0.01,-9.77,53,-51,9
5272,0.203,-0.147,0.215,0.10,-0.01,-9.77,48,-54,4
5273,0.264,-0.086,0.276,0.10,-0.01,-9.77,48,-54,4
5274,0.386,0.280,0.031,0.10,-0.01,-9.77,48,-54,4
5275,0.508,0.586,0.031,0.10,-0.01,-9.77,48,-54,4
5276,0.325,-0.025,0.154,0.10,-0.01,-9.77,52,-52,6
5277,0.203,-0.391,0.154,0.10,0.07,-9.85,52,-52,6
5278,0.081,-0.391,0.276,0.10,0.07,-9.85,48,-52,10
5279,-0.102,-0.269,0.215,0.10,0.07,-9.85,48,-52,10
5280,-0.407,-0.086,0.092,0.10,-0.01,-9.85,52,-52,10
5281,-0.651,-0.147,-0.030,0.10,-0.01,-9.85,52,-52,10
5282,-0.590,-0.208,-0.152,0.10,-0.01,-9.85,52,-56,6
5283,-0.163,-0.025,-0.213,0.10,0.07,-9.85,52,-56,6
5284,0.264,0.036,-0.152,0.10,-0.01,-9.85,50,-52,10
5285,0.264,-0.025,-0.152,0.10,-0.01,-9.85,50,-52,10
5286,0.325,0.036,0.031,0.10,-0.01,-9.85,56,-54,8
5287,-0.163,0.219,0.154,0.10,-0.01,-9.85,56,-54,8
5288,-0.224,0.097,-0.091,0.10,-0.01,-9.85,46,-52,12
5289,-0.346,0.097,-0.274,0.10,-0.01,-9.85,46,-52,12
5290,0.020,0.158,-0.396,0.18,-0.01,-9.85,45,-61,11
5291,0.142,0.280,-0.152,0.18,-0.01,-9.85,45,-61,11
5292,0.142,-0.025,0.092,0.18,-0.09,-9.85,56,-52,6
5293,-0.041,-0.452,0.215,0.10,-0.01,-9.77,56,-52,6
5294,0.325,-0.452,0.276,0.10,-0.01,-9.77,50,-52,8
5295,0.508,-0.330,-0.030,0.10,-0.01,-9.77,50,-52,8
5296,0.264,-0.147,-0.274,0.10,-0.01,-9.77,48,-52,10
5297,-0.224,0.158,-0.030,0.10,-0.01,-9.77,48,-52,10
5298,-0.407,-0.086,0.276,0.10,-0.09,-9.77,45,-55,15
5299,-0.163,-0.086,0.215,0.10,-0.01,-9.77,45,-55,15
5300,-0.102,-0.147,-0.030,0.10,-0.01,-9.77,52,-54,6
5301,0.081,0.036,-0.213,0.10,-0.01,-9.77,52,-54,6
5302,0.203,0.280,0.031,0.18,-0.01,-9.77,53,-55,11
5303,0.020,0.158,0.520,0.10,-0.09,-9.77,53,-55,11
5304,0.081,-0.147,0.520,0.10,-0.01,-9.77,45,-53,9
5305,0.142,0.036,0.092,0.10,-0.01,-9.77,45,-53,9
5306,0.081,0.097,-0.091,0.18,-0.01,-9.77,53,-53,7
5307,-0.102,0.036,-0.396,0.18,-0.01,-9.77,53,-53,7
5308,-0.407,-0.086,-0.091,0.18,-0.01,-9.77,48,-54,8
5309,-0.529,-0.086,0.092,0.10,-0.01,-9.85,48,-54,8
5310,-0.346,-0.269,0.092,0.10,-0.01,-9.85,50,-52,10
5311,0.264,-0.086,-0.030,0.10,-0.01,-9.85,50,-52,10
5312,0.508,0.097,-0.152,0.10,-0.01,-9.85,52,-50,8
5313,0.631,0.158,-0.396,0.10,-0.09,-9.85,52,-50,8
5314,0.569,0.219,-0.213,0.10,-0.09,-9.77,52,-52,8
5315,0.447,0.464,0.215,0.10,-0.09,-9.77,52,-52,8
5316,0.264,0.464,0.276,0.10,-0.09,-9.77,50,-56,8
5317,0.081,0.342,0.154,0.18,-0.01,-9.77,50,-56,8
5318,-0.102,0.097,0.276,0.18,-0.01,-9.77,50,-50,4
5319,0.020,-0.269,0.154,0.18,-0.01,-9.77,50,-50,4
5320,-0.041,-0.269,0.154,0.18,-0.01,-9.77,49,-51,9
5321,-0.041,-0.269,0.031,0.18,-0.01,-9.77,49,-51,9
5322,-0.041,-0.208,0.215,0.18,-0.01,-9.77,46,-54,6
5323,-0.346,-0.269,0.215,0.18,-0.01,-9.77,46,-54,6
5324,-0.163,-0.269,0.154,0.18,-0.01,-9.77,49,-51,7
5325,0.081,-0.086,-0.030,0.10,-0.01,-9.85,49,-51,7
5326,0.447,-0.086,-0.091,0.10,-0.09,-9.77,49,-43,7
5327,0.447,0.097,-0.152,0.10,-0.09,-9.77,49,-43,7
5328,0.264,0.036,0.215,0.10,-0.01,-9.85,48,-58,4
5329,-0.102,0.403,0.092,0.10,-0.01,-9.77,48,-58,4
5330,-0.346,0.342,0.031,0.10,-0.01,-9.85,51,-55,11
5331,-0.651,0.280,-0.274,0.10,-0.01,-9.77,51,-55,11
5332,-0.468,0.219,-0.396,0.10,-0.01,-9.77,46,-54,8
5333,-0.285,0.036,-0.274,0.10,-0.01,-9.77,46,-54,8
5334,0.203,-0.208,-0.152,0.10,-0.01,-9.77,52,-50,6
5335,0.264,-0.208,0.092,0.10,-0.01,-9.85,52,-50,6
5336,0.447,-0.208,0.154,0.10,-0.01,-9.85,48,-52,6
5337,0.447,-0.086,0.276,0.10,-0.01,-9.77,48,-52,6
5338,0.264,-0.086,0.154,0.10,-0.09,-9.77,45,-55,9
5339,0.203,-0.086,-0.030,0.10,-0.09,-9.77,45,-55,9
5340,-0.163,-0.025,-0.091,0.10,-0.01,-9.77,41,-61,9
5341,-0.285,-0.025,-0.091,0.10,-0.01,-9.77,41,-61,9
5342,-0.407,-0.147,0.031,0.10,-0.01,-9.85,48,-52,8
5343,-0.285,-0.147,-0.030,0.10,-0.01,-9.85,48,-52,8
5344,-0.163,0.036,0.154,0.10,-0.01,-9.85,46,-54,8
5345,0.081,0.036,0.031,0.10,-0.01,-9.85,46,-54,8
5346,0.203,0.280,-0.213,0.10,-0.01,-9.85,48,-54,6
5347,0.264,0.219,-0.091,0.10,-0.01,-9.85,48,-54,6
5348,0.142,0.219,-0.091,0.10,-0.01,-9.85,52,-58,12
5349,0.020,-0.025,0.154,0.10,-0.01,-9.85,52,-58,12
5350,-0.102,-0.208,0.215,0.10,-0.01,-9.85,48,-52,10
5351,0.081,-0.330,0.154,0.10,-0.01,-9.85,48,-52,10
5352,-0.041,-0.269,-0.030,0.10,-0.01,-9.85,48,-54,6
5353,0.020,-0.086,-0.213,0.10,-0.01,-9.85,48,-54,6
5354,0.020,-0.086,-0.091,0.10,-0.01,-9.85,52,-50,8
5355,-0.163,0.158,-0.091,0.10,-0.01,-9.85,52,-50,8
5356,-0.102,0.158,-0.030,0.10,-0.01,-9.85,50,-48,10
5357,-0.041,0.158,0.031,0.10,-0.01,-9.77,50,-48,10
5358,0.020,0.036,0.031,0.10,-0.01,-9.85,49,-57,7
5359,0.020,-0.025,-0.030,0.10,-0.01,-9.85,49,-57,7
5360,0.081,0.158,0.031,0.10,-0.09,-9.77,46,-56,10
5361,0.203,0.036,-0.030,0.10,-0.09,-9.77,46,-56,10
5362,0.142,0.036,-0.030,0.10,-0.01,-9.77,51,-55,7
5363,0.020,0.036,0.031,0.10,-0.01,-9.77,51,-55,7
5364,-0.102,0.036,-0.030,0.10,-0.01,-9.85,47,-53,9
5365,-0.163,0.036,0.092,0.10,-0.01,-9.77,47,-53,9
5366,-0.041,-0.086,-0.030,0.10,-0.01,-9.85,49,-57,7
5367,-0.102,-0.086,-0.030,0.10,-0.01,-9.85,49,-57,7
5368,-0.041,-0.086,-0.030,0.10,-0.01,-9.85,50,-56,12
5369,0.020,-0.086,-0.030,0.10,-0.01,-9.77,50,-56,12
5370,0.081,-0.025,-0.030,0.10,-0.09,-9.77,53,-53,7
5371,0.142,0.097,0.031,0.10,-0.01,-9.77,53,-53,7
5372,0.081,0.036,0.092,0.10,-0.01,-9.77,51,-55,7
5373,0.020,0.097,-0.030,0.10,-0.01,-9.77,51,-55,7
5374,-0.041,0.036,-0.030,0.10,-0.01,-9.77,47,-51,7
5375,-0.041,-0.086,-0.091,0.10,-0.01,-9.77,47,-51,7
5376,-0.041,-0.208,0.031,0.10,-0.01,-9.77,50,-54,6
5377,-0.041,-0.147,0.031,0.10,-0.01,-9.77,50,-54,6
5378,0.020,-0.147,0.031,0.10,-0.01,-9.77,48,-56,8
5379,-0.041,-0.025,-0.030,0.10,-0.01,-9.77,48,-56,8
5380,0.142,-0.086,-0.030,0.10,-0.09,-9.85,50,-50,2
5381,-0.041,-0.086,-0.030,0.10,-0.09,-9.85,50,-50,2
5382,0.020,-0.025,0.031,0.10,-0.09,-9.85,49,-55,13
5383,0.081,-0.086,0.031,0.10,-0.09,-9.85,49,-55,13
5384,0.020,-0.025,-0.030,0.10,-0.09,-9.85,51,-55,13
5385,0.020,-0.086,-0.030,0.10,-0.09,-9.85,51,-55,13
5386,-0.041,0.036,0.031,0.10,-0.01,-9.85,46,-52,8
5387,-0.041,-0.086,0.031,0.10,-0.01,-9.85,46,-52,8
5388,-0.041,0.036,0.031,0.10,-0.01,-9.85,47,-57,5
5389,0.081,0.036,-0.030,0.10,-0.01,-9.85,47,-57,5
5390,0.081,-0.025,-0.030,0.10,-0.01,-9.85,55,-51,7
5391,0.142,-0.086,0.031,0.10,-0.01,-9.77,55,-51,7
5392,0.020,-0.025,-0.030,0.10,-0.01,-9.77,48,-54,4
5393,0.081,-0.086,-0.030,0.10,-0.01,-9.77,48,-54,4
5394,0.020,0.036,0.031,0.10,-0.01,-9.77,52,-56,8
5395,-0.041,-0.025,-0.030,0.10,-0.01,-9.77,52,-56,8
5396,0.020,0.097,0.092,0.10,-0.01,-9.77,50,-50,12
5397,-0.102,0.097,-0.030,0.10,-0.01,-9.77,50,-50,12
5398,0.020,0.097,0.031,0.10,-0.01,-9.77,50,-50,12
5399,-0.041,0.097,0.031,0.10,-0.01,-9.77,50,-50,12
5400,-0.041,-0.086,0.092,0.10,-0.01,-9.77,50,-50,8
5401,0.081,0.036,0.154,0.10,-0.01,-9.77,50,-50,8
5402,0.020,-0.025,-0.030,0.10,-0.01,-9.77,52,-46,10
5403,0.142,0.036,-0.091,0.10,-0.01,-9.77,52,-46,10
5404,-0.041,-0.025,0.031,0.10,-0.01,-9.77,50,-52,10
5405,0.020,0.097,0.092,0.10,-0.09,-9.77,50,-52,10
5406,0.081,-0.147,-0.152,0.10,-0.01,-9.77,49,-53,7
5407,-0.102,0.036,-0.030,0.10,-0.01,-9.77,49,-53,7
5408,0.081,0.036,-0.091,0.10,-0.01,-9.77,45,-53,5
5409,-0.102,0.036,-0.091,0.10,-0.01,-9.77,45,-53,5
5410,-0.041,-0.147,-0.030,0.10,-0.01,-9.77,48,-52,8
5411,-0.041,-0.025,0.031,0.10,-0.01,-9.77,48,-52,8
5412,-0.041,0.036,0.092,0.10,-0.01,-9.77,47,-57,7
5413,0.081,0.036,-0.030,0.10,-0.01,-9.77,47,-57,7
5414,0.020,0.036,-0.030,0.10,-0.01,-9.77,48,-52,8
5415,0.081,0.036,-0.030,0.10,-0.01,-9.77,48,-52,8
5416,0.020,-0.025,0.031,0.10,-0.01,-9.77,53,-55,9
5417,0.020,-0.086,-0.030,0.10,-0.01,-9.85,53,-55,9
5418,0.020,-0.086,0.031,0.10,-0.01,-9.85,50,-52,10
5419,0.020,-0.086,-0.030,0.10,-0.01,-9.85,50,-52,10
5420,-0.041,-0.208,-0.030,0.10,-0.01,-9.85,48,-52,10
5421,0.020,0.036,-0.091,0.10,-0.09,-9.85,48,-52,10
5422,0.020,-0.086,-0.091,0.10,-0.09,-9.85,49,-55,5
5423,-0.041,-0.025,0.031,0.10,-0.01,-9.85,49,-55,5
5424,0.020,-0.086,-0.030,0.10,-0.01,-9.85,46,-54,6
5425,0.081,-0.025,0.092,0.10,-0.01,-9.85,46,-54,6
5426,0.081,-0.025,0.031,0.10,-0.01,-9.85,51,-57,9
5427,-0.041,-0.086,0.031,0.10,-0.01,-9.85,51,-57,9
5428,0.020,-0.025,0.031,0.10,-0.01,-9.85,45,-55,13
5429,-0.102,-0.025,0.092,0.10,-0.01,-9.85,45,-55,13
5430,0.020,0.097,0.031,0.10,-0.01,-9.85,48,-52,8
5431,-0.041,-0.025,-0.091,0.03,-0.01,-9.85,48,-52,8
5432,0.020,-0.025,-0.030,0.03,-0.01,-9.85,49,-53,9
5433,0.081,0.036,0.031,0.10,-0.09,-9.85,49,-53,9
5434,-0.041,-0.086,0.031,0.10,-0.01,-9.77,51,-51,9
5435,0.020,-0.086,0.031,0.10,-0.09,-9.77,51,-51,9
5436,0.020,-0.147,-0.030,0.10,-0.09,-9.77,49,-51,11
5437,0.020,-0.025,0.031,0.10,-0.09,-9.77,49,-51,11
5438,0.020,-0.025,-0.030,0.10,-0.09,-9.77,51,-53,9
5439,0.020,-0.086,-0.030,0.10,-0.01,-9.77,51,-53,9
5440,-0.041,-0.025,-0.030,0.10,-0.01,-9.77,51,-49,7
5441,0.020,-0.025,0.031,0.10,-0.09,-9.77,51,-49,7
5442,0.020,-0.086,-0.030,0.10,-0.01,-9.77,51,-53,9
5443,-0.041,-0.086,0.031,0.10,-0.01,-9.77,51,-53,9
5444,0.020,-0.025,-0.091,0.10,-0.01,-9.85,47,-53,9
5445,-0.102,-0.025,-0.030,0.10,-0.01,-9.85,47,-53,9
5446,-0.041,-0.086,-0.091,0.10,-0.01,-9.85,52,-58,10
5447,0.020,-0.086,0.031,0.10,-0.01,-9.85,52,-58,10
5448,0.020,0.036,0.092,0.10,-0.01,-9.85,49,-51,7
5449,0.081,0.036,0.154,0.10,-0.09,-9.77,49,-51,7
5450,0.020,0.036,0.092,0.10,-0.01,-9.77,50,-48,12
5451,0.020,0.097,0.031,0.10,-0.01,-9.85,50,-48,12
5452,0.081,0.036,-0.030,0.10,-0.01,-9.85,49,-57,5
5453,0.081,-0.025,-0.030,0.10,-0.01,-9.77,49,-57,5
5454,-0.102,-0.086,0.031,0.10,-0.01,-9.77,50,-52,8
5455,-0.041,0.158,0.092,0.10,-0.01,-9.77,50,-52,8
5456,0.020,0.036,0.031,0.10,-0.01,-9.85,53,-55,7
5457,0.020,-0.025,0.031,0.10,-0.09,-9.85,53,-55,7
5458,0.020,-0.025,0.031,0.10,-0.09,-9.85,47,-53,9
5459,0.020,-0.086,-0.030,0.10,-0.01,-9.85,47,-53,9
5460,0.081,-0.025,0.092,0.10,-0.01,-9.77,47,-51,9
5461,0.081,-0.025,0.031,0.10,-0.09,-9.77,47,-51,9
5462,0.020,0.036,-0.030,0.10,-0.01,-9.85,48,-54,10
5463,-0.041,-0.025,0.031,0.10,-0.01,-9.77,48,-54,10
5464,0.081,0.036,0.031,0.10,-0.01,-9.85,50,-56,4
5465,-0.041,-0.025,-0.030,0.10,-0.01,-9.85,50,-56,4
5466,0.020,-0.025,-0.030,0.10,-0.01,-9.85,49,-55,11
5467,0.081,-0.086,0.031,0.10,-0.01,-9.85,49,-55,11
5468,0.081,-0.086,0.031,0.10,-0.01,-9.85,49,-55,9
5469,0.142,-0.025,-0.030,0.10,-0.01,-9.77,49,-55,9
5470,-0.041,-0.025,-0.091,0.10,-0.01,-9.85,47,-53,9
5471,-0.041,-0.086,0.031,0.10,-0.01,-9.85,47,-53,9
5472,-0.041,-0.086,-0.030,0.10,-0.01,-9.77,47,-53,9
5473,0.081,0.158,0.092,0.10,-0.01,-9.85,47,-53,9
5474,0.081,-0.025,0.031,0.10,-0.01,-9.77,46,-56,6
5475,0.020,-0.086,0.031,0.10,-0.01,-9.77,46,-56,6
5476,0.020,-0.025,0.092,0.10,-0.01,-9.77,48,-50,4
5477,0.081,-0.147,-0.091,0.10,-0.01,-9.85,48,-50,4
5478,0.020,-0.086,-0.091,0.10,-0.01,-9.85,51,-53,9
5479,0.081,-0.208,0.031,0.10,-0.01,-9.77,51,-53,9
5480,-0.102,0.036,0.031,0.10,-0.01,-9.77,53,-53,15
5481,-0.041,-0.025,0.092,0.10,-0.01,-9.77,53,-53,15
5482,0.081,0.036,0.092,0.10,-0.01,-9.85,44,-52,8
5483,0.020,0.036,-0.091,0.10,-0.01,-9.85,44,-52,8
5484,-0.041,0.036,-0.030,0.10,-0.09,-9.85,49,-55,7
5485,0.020,0.097,-0.030,0.10,-0.01,-9.85,49,-55,7
5486,0.142,-0.086,0.031,0.10,-0.09,-9.85,50,-48,6
5487,0.020,-0.025,-0.030,0.10,-0.01,-9.85,50,-48,6
5488,-0.041,-0.147,0.031,0.10,-0.01,-9.85,49,-53,11
5489,-0.102,0.097,-0.030,0.10,-0.01,-9.85,49,-53,11
5490,0.081,-0.086,-0.030,0.10,-0.01,-9.85,49,-51,1
5491,0.020,-0.025,-0.030,0.10,-0.01,-9.85,49,-51,1
5492,0.081,-0.025,-0.030,0.10,-0.01,-9.85,51,-53,3
5493,0.142,0.097,-0.091,0.10,-0.01,-9.85,51,-53,3
5494,0.020,-0.025,0.031,0.10,-0.01,-9.77,49,-55,11
5495,0.020,-0.147,-0.030,0.10,-0.01,-9.77,49,-55,11
5496,-0.041,0.036,-0.030,0.10,-0.01,-9.77,53,-53,11
5497,0.020,-0.025,-0.091,0.10,-0.01,-9.77,53,-53,11
5498,-0.163,-0.086,-0.030,0.10,-0.01,-9.77,47,-53,9
5499,-0.041,0.036,0.031,0.10,-0.01,-9.77,47,-53,9
5500,-0.102,-0.086,0.031,0.10,-0.01,-9.77,47,-55,7
5501,0.020,0.036,-0.091,0.10,-0.01,-9.77,47,-55,7
5502,-0.102,0.036,-0.030,0.10,-0.01,-9.77,49,-51,9
5503,0.081,-0.086,0.154,0.10,-0.01,-9.77,49,-51,9
5504,0.020,-0.086,0.031,0.10,-0.01,-9.77,48,-60,10
5505,-0.041,-0.025,-0.091,0.10,-0.01,-9.77,48,-60,10
5506,0.020,-0.086,0.092,0.10,-0.01,-9.77,48,-52,10
5507,-0.041,-0.086,-0.030,0.10,-0.01,-9.77,48,-52,10
5508,0.142,-0.025,-0.030,0.10,-0.01,-9.85,48,-50,10
5509,0.020,0.036,0.031,0.10,-0.01,-9.85,48,-50,10
5510,0.142,0.036,0.031,0.10,-0.01,-9.85,50,-54,6
5511,0.020,0.036,0.031,0.10,-0.01,-9.85,50,-54,6
5512,0.081,0.036,0.031,0.10,-0.01,-9.85,49,-53,5
5513,0.020,-0.025,-0.030,0.10,-0.01,-9.85,49,-53,5
5514,0.081,0.036,-0.091,0.10,-0.01,-9.85,56,-54,6
5515,0.020,-0.025,0.092,0.10,-0.01,-9.85,56,-54,6
5516,0.020,-0.086,-0.091,0.10,-0.01,-9.85,50,-54,6
5517,0.020,-0.086,-0.030,0.10,-0.01,-9.85,50,-54,6
5518,-0.102,-0.086,-0.030,0.10,-0.01,-9.85,53,-51,11
5519,-0.041,0.097,0.031,0.10,-0.01,-9.85,53,-51,11
5520,-0.102,0.097,0.031,0.10,-0.01,-9.85,50,-54,4
5521,0.081,0.036,-0.030,0.10,-0.01,-9.85,50,-54,4
5522,-0.041,-0.025,0.092,0.10,-0.01,-9.85,46,-52,8
5523,0.081,-0.086,0.031,0.18,-0.01,-9.85,46,-52,8
5524,0.020,-0.025,-0.030,0.10,-0.01,-9.85,47,-51,13
5525,0.020,-0.086,0.031,0.10,-0.01,-9.77,47,-51,13
5526,-0.041,-0.086,0.031,0.10,-0.01,-9.77,53,-55,5
5527,-0.041,0.036,0.031,0.10,-0.01,-9.77,53,-55,5
5528,-0.041,-0.025,0.031,0.10,-0.01,-9.77,50,-56,8
5529,0.020,-0.086,0.031,0.10,-0.01,-9.77,50,-56,8
5530,-0.041,0.036,-0.030,0.10,-0.01,-9.77,48,-54,8
5531,0.020,-0.086,-0.030,0.10,-0.01,-9.77,48,-54,8
5532,0.020,0.036,-0.030,0.03,-0.01,-9.85,50,-54,6
5533,0.142,0.036,-0.030,0.03,-0.01,-9.85,50,-54,6
5534,0.020,-0.025,0.031,0.10,-0.01,-9.85,52,-54,8
5535,-0.041,0.036,0.031,0.10,-0.01,-9.85,52,-54,8
5536,0.020,-0.147,0.031,0.10,-0.01,-9.85,55,-53,13
5537,0.081,-0.147,0.031,0.03,-0.01,-9.85,55,-53,13
5538,0.020,0.036,0.031,0.03,-0.09,-9.85,48,-50,8
5539,0.020,0.036,0.031,0.10,-0.01,-9.85,48,-50,8
5540,0.081,-0.025,0.092,0.03,-0.09,-9.85,56,-54,12
5541,0.142,0.036,0.031,0.03,-0.09,-9.85,56,-54,12
5542,0.081,-0.086,0.092,0.10,-0.09,-9.85,48,-54,6
5543,-0.041,-0.025,0.031,0.10,-0.01,-9.85,48,-54,6
5544,0.020,0.036,-0.030,0.10,-0.01,-9.85,43,-57,9
5545,-0.041,-0.086,-0.152,0.10,-0.01,-9.85,43,-57,9
5546,-0.041,-0.086,-0.091,0.10,-0.01,-9.85,53,-57,11
5547,0.081,-0.086,-0.030,0.10,-0.01,-9.85,53,-57,11
5548,-0.041,0.036,-0.030,0.10,-0.01,-9.85,48,-50,10
5549,0.020,-0.025,0.031,0.10,-0.01,-9.85,48,-50,10
5550,0.020,-0.086,-0.091,0.10,-0.01,-9.85,44,-50,4
5551,0.020,0.036,0.092,0.10,-0.01,-9.85,44,-50,4
5552,0.020,-0.086,-0.030,0.10,-0.01,-9.85,51,-53,9
5553,-0.102,-0.025,0.031,0.10,-0.01,-9.85,51,-53,9
5554,0.081,-0.025,-0.030,0.10,-0.09,-9.77,49,-51,9
5555,0.142,-0.147,0.092,0.10,-0.09,-9.77,49,-51,9
5556,-0.041,-0.025,0.092,0.10,-0.09,-9.77,47,-53,9
5557,0.020,0.097,0.031,0.10,-0.01,-9.77,47,-53,9
