nr,time,flyState,ax,ay,az,gx,gy,gz,height_speed,set_h,height,throttle,set_pitch,pitch,set_roll,roll,set_yaw,yaw,motval_0,motval_1, motval_2,motval_3,hor_xv,hor_yv, hor_dt,hor_seqNum,xPos,yPos,targetXVel,targetYVel,targetPitch, targetRoll, adj_pitch, adj_roll, adj_yaw, adj_h
1,946684902.076232,0,0.000000,0.000000,0.000000,0.000000,0.000000,0.000000,0.000000,0.000000,0.000000,0.000000,0.000000,0.000000,0.000000,0.000000,0.000000,0.000000,0.000000,0.000000,0.000000,0.000000,0.000000,0.000000,0.000000,0,0.000000,0.000000,0.000000,0.000000,0.000000,0.000000,0.000000,0.000000,0.000000,0.000000
2,946684902.445251,1,0.018393,0.017628,-9.803100,0.122074,-0.047609,0.019532,0.000000,0.000000,0.299540,0.000000,0.000000,0.005029,0.000000,0.000181,0.000000,-0.015281,0.000000,0.000000,0.000000,0.000000,0.245138,0.000000,0.030548,5,0.000000,0.000000,0.000000,0.000000,0.000000,0.000000,0.000000,0.000000,0.000000,0.000000
3,946684902.445983,1,0.018393,0.017628,-9.803100,-0.061037,-0.047609,0.019532,0.000000,0.000000,0.299540,0.000000,0.000000,0.005049,0.000000,0.000191,0.000000,-0.015267,0.000000,0.000000,0.000000,0.000000,0.245138,0.000000,0.030548,5,0.000000,0.000000,0.000000,0.000000,0.000000,0.000000,0.000000,0.000000,0.000000,0.000000
4,946684902.450500,1,0.018393,0.017628,-9.803100,0.061037,-0.047609,-0.041505,3.744250,0.000000,0.299540,0.000000,0.000000,0.004890,0.000000,0.000522,0.000000,-0.015454,0.000000,0.000000,0.000000,0.000000,0.245138,0.000000,0.030548,5,0.000000,0.000000,0.000000,0.000000,0.000000,0.000000,0.000000,0.000000,0.000000,0.000000
5,946684902.450897,1,0.018393,0.017628,-9.803100,0.061037,0.074465,-0.041505,3.744250,0.000000,0.299540,0.000000,0.000000,0.004975,0.000000,0.000602,0.000000,-0.015470,0.000000,0.000000,0.000000,0.000000,0.245138,0.000000,0.030548,5,0.000000,0.000000,0.000000,0.000000,0.000000,0.000000,0.000000,0.000000,0.000000,0.000000
6,946684902.451171,1,0.018393,-0.059012,-9.803100,0.000000,0.013428,-0.041505,3.744250,0.000000,0.299540,0.000000,0.000000,0.005034,0.000000,0.000415,0.000000,-0.015482,0.000000,0.000000,0.000000,0.000000,0.245138,0.000000,0.030548,5,0.000000,0.000000,0.000000,0.000000,0.000000,0.000000,0.000000,0.000000,0.000000,0.000000
7,946684902.451416,1,0.018393,0.017628,-9.803100,0.122074,0.074465,0.019532,3.744250,0.000000,0.299540,0.000000,0.000000,0.005108,0.000000,0.000500,0.000000,-0.015477,0.000000,0.000000,0.000000,0.000000,0.245138,0.000000,0.030548,5,0.000000,0.000000,0.000000,0.000000,0.000000,0.000000,0.000000,0.000000,0.000000,0.000000
8,946684902.451660,1,-0.058248,0.017628,-9.803100,0.061037,0.074465,0.019532,3.744250,0.000000,0.299540,0.000000,0.000000,0.004939,0.000000,0.000571,0.000000,-0.015472,0.000000,0.000000,0.000000,0.000000,0.245138,0.000000,0.030548,5,0.000000,0.000000,0.000000,0.000000,0.000000,0.000000,0.000000,0.000000,0.000000,0.000000
9,946684902.451904,1,-0.058248,0.017628,-9.803100,0.000000,0.013428,0.080569,3.744250,0.000000,0.299540,0.000000,0.000000,0.004755,0.000000,0.000626,0.000000,-0.015453,0.000000,0.000000,0.000000,0.000000,0.245138,0.000000,0.030548,5,0.000000,0.000000,0.000000,0.000000,0.000000,0.000000,0.000000,0.000000,0.000000,0.000000
10,946684902.452178,1,-0.058248,-0.059012,-9.803100,-0.122074,0.013428,-0.041505,3.744250,0.000000,0.299540,0.000000,0.000000,0.004572,0.000000,0.000406,0.000000,-0.015464,0.000000,0.000000,0.000000,0.000000,0.245138,0.000000,0.030548,5,0.000000,0.000000,0.000000,0.000000,0.000000,0.000000,0.000000,0.000000,0.000000,0.000000
11,946684902.452545,1,-0.058248,-0.059012,-9.803100,0.000000,-0.108646,-0.041505,3.744250,0.000000,0.299540,0.000000,0.000000,0.004345,0.000000,0.000218,0.000000,-0.015479,0.000000,0.000000,0.000000,0.000000,0.245138,0.000000,0.030548,5,0.000000,0.000000,0.000000,0.000000,0.000000,0.000000,0.000000,0.000000,0.000000,0.000000
12,946684902.452758,1,-0.058248,-0.059012,-9.803100,0.000000,-0.047609,0.019532,3.744250,0.000000,0.299540,0.000000,0.000000,0.004148,0.000000,0.000031,0.000000,-0.015475,0.000000,0.000000,0.000000,0.000000,0.245138,0.000000,0.030548,5,0.000000,0.000000,0.000000,0.000000,0.000000,0.000000,0.000000,0.000000,0.000000,0.000000
13,946684902.452972,1,-0.058248,0.017628,-9.803100,0.000000,-0.047609,0.019532,3.744250,0.000000,0.299540,0.000000,0.000000,0.003951,0.000000,0.000087,0.000000,-0.015471,0.000000,0.000000,0.000000,0.000000,0.245138,0.000000,0.030548,5,0.000000,0.000000,0.000000,0.000000,0.000000,0.000000,0.000000,0.000000,0.000000,0.000000
14,946684902.453186,1,-0.058248,0.017628,-9.803100,-0.061037,0.013428,0.141606,3.744250,0.000000,0.299540,0.000000,0.000000,0.003767,0.000000,0.000130,0.000000,-0.015441,0.000000,0.000000,0.000000,0.000000,0.245138,0.000000,0.030548,5,0.000000,0.000000,0.000000,0.000000,0.000000,0.000000,0.000000,0.000000,0.000000,0.000000
15,946684902.453369,1,-0.058248,0.017628,-9.803100,0.000000,0.196539,0.019532,3.744250,0.000000,0.299540,0.000000,0.000000,0.003616,0.000000,0.000186,0.000000,-0.015437,0.000000,0.000000,0.000000,0.000000,0.245138,0.000000,0.030548,5,0.000000,0.000000,0.000000,0.000000,0.000000,0.000000,0.000000,0.000000,0.000000,0.000000
16,946684902.453582,1,-0.058248,0.017628,-9.803100,0.061037,-0.047609,0.080569,3.744250,0.000000,0.299540,0.000000,0.000000,0.003419,0.000000,0.000254,0.000000,-0.015420,0.000000,0.000000,0.000000,0.000000,0.245138,0.000000,0.030548,5,0.000000,0.000000,0.000000,0.000000,0.000000,0.000000,0.000000,0.000000,0.000000,0.000000
17,946684902.453796,1,-0.058248,0.017628,-9.803100,0.061037,-0.108646,-0.102542,3.744250,0.000000,0.299540,0.000000,0.000000,0.003209,0.000000,0.000323,0.000000,-0.015442,0.000000,0.000000,0.000000,0.000000,0.245138,0.000000,0.030548,5,0.000000,0.000000,0.000000,0.000000,0.000000,0.000000,0.000000,0.000000,0.000000,0.000000
18,946684902.454315,1,-0.058248,0.017628,-9.803100,-0.061037,-0.108646,0.019532,3.744250,0.000000,0.299540,0.000000,0.000000,0.002967,0.000000,0.000347,0.000000,-0.015432,0.000000,0.000000,0.000000,0.000000,0.245138,0.000000,0.030548,5,0.000000,0.000000,0.000000,0.000000,0.000000,0.000000,0.000000,0.000000,0.000000,0.000000
19,946684902.455932,1,-0.058248,0.017628,-9.803100,-0.061037,0.196539,-0.041505,3.744250,0.000000,0.299540,0.000000,0.000000,0.003097,0.000000,0.000305,0.000000,-0.015499,0.000000,0.000000,0.000000,0.000000,0.245138,0.000000,0.030548,5,0.000000,0.000000,0.000000,0.000000,0.000000,0.000000,0.000000,0.000000,0.000000,0.000000
20,946684902.456146,1,-0.058248,0.017628,-9.803100,-0.061037,0.074465,0.080569,0.000000,0.000000,0.299540,0.000000,0.000000,0.002926,0.000000,0.000348,0.000000,-0.015482,0.000000,0.000000,0.000000,0.000000,0.245138,0.000000,0.030548,5,0.000000,0.000000,0.000000,0.000000,0.000000,0.000000,0.000000,0.000000,0.000000,0.000000
21,946684902.456390,1,-0.058248,0.017628,-9.803100,-0.061037,0.074465,-0.163579,0.000000,0.000000,0.299540,0.000000,0.000000,0.002757,0.000000,0.000389,0.000000,-0.015521,0.000000,0.000000,0.000000,0.000000,0.245138,0.000000,0.030548,5,0.000000,0.000000,0.000000,0.000000,0.000000,0.000000,0.000000,0.000000,0.000000,0.000000
22,946684902.456726,1,-0.058248,0.017628,-9.803100,0.000000,-0.047609,0.080569,0.000000,0.000000,0.299540,0.000000,0.000000,0.002554,0.000000,0.000445,0.000000,-0.015494,0.000000,0.000000,0.000000,0.000000,0.245138,0.000000,0.030548,5,0.000000,0.000000,0.000000,0.000000,0.000000,0.000000,0.000000,0.000000,0.000000,0.000000
23,946684902.458221,1,-0.058248,0.017628,-9.803100,0.000000,0.013428,0.080569,0.000000,0.000000,0.299540,0.000000,0.000000,0.002386,0.000000,0.000501,0.000000,-0.015374,0.000000,0.000000,0.000000,0.000000,0.245138,0.000000,0.030548,5,0.000000,0.000000,0.000000,0.000000,0.000000,0.000000,0.000000,0.000000,0.000000,0.000000
24,946684902.458465,1,-0.058248,0.017628,-9.879741,0.061037,0.074465,0.080569,0.000000,0.000000,0.299540,0.000000,0.000000,0.002218,0.000000,0.000571,0.000000,-0.015354,0.000000,0.000000,0.000000,0.000000,0.245138,0.000000,0.030548,5,0.000000,0.000000,0.000000,0.000000,0.000000,0.000000,0.000000,0.000000,0.000000,0.000000
25,946684902.458679,1,-0.058248,0.017628,-9.803100,0.000000,0.074465,0.141606,0.000000,0.000000,0.299540,0.000000,0.000000,0.002046,0.000000,0.000627,0.000000,-0.015324,0.000000,0.000000,0.000000,0.000000,0.245138,0.000000,0.030548,5,0.000000,0.000000,0.000000,0.000000,0.000000,0.000000,0.000000,0.000000,0.000000,0.000000
26,946684902.458892,1,-0.058248,0.017628,-9.803100,-0.061037,-0.047609,0.080569,0.000000,0.000000,0.299540,0.000000,0.000000,0.001849,0.000000,0.000670,0.000000,-0.015307,0.000000,0.000000,0.000000,0.000000,0.245138,0.000000,0.030548,5,0.000000,0.000000,0.000000,0.000000,0.000000,0.000000,0.000000,0.000000,0.000000,0.000000
27,946684902.459106,1,-0.058248,0.017628,-9.803100,0.122074,0.013428,0.080569,0.000000,0.000000,0.299540,0.000000,0.000000,0.001664,0.000000,0.000753,0.000000,-0.015290,0.000000,0.000000,0.000000,0.000000,0.245138,0.000000,0.030548,5,0.000000,0.000000,0.000000,0.000000,0.000000,0.000000,0.000000,0.000000,0.000000,0.000000
28,946684902.460906,1,-0.058248,0.017628,-9.803100,0.000000,-0.047609,0.019532,-0.004250,0.000000,0.299200,0.000000,0.000000,0.001390,0.000000,0.000809,0.000000,-0.015254,0.000000,0.000000,0.000000,0.000000,0.244860,0.000000,0.030548,5,0.000000,0.000000,0.000000,0.000000,0.000000,0.000000,0.000000,0.000000,0.000000,0.000000
29,946684902.461212,1,-0.058248,0.017628,-9.803100,0.000000,0.135502,-0.041505,-0.004250,0.000000,0.299200,0.000000,0.000000,0.001244,0.000000,0.000865,0.000000,-0.015267,0.000000,0.000000,0.000000,0.000000,0.244860,0.000000,0.030548,5,0.000000,0.000000,0.000000,0.000000,0.000000,0.000000,0.000000,0.000000,0.000000,0.000000
30,946684902.461425,1,0.018393,0.017628,-9.803100,-0.061037,0.013428,-0.041505,-0.004250,0.000000,0.299200,0.000000,0.000000,0.001305,0.000000,0.000908,0.000000,-0.015276,0.000000,0.000000,0.000000,0.000000,0.244860,0.000000,0.030548,5,0.000000,0.000000,0.000000,0.000000,0.000000,0.000000,0.000000,0.000000,0.000000,0.000000
31,946684902.461669,1,0.018393,0.017628,-9.803100,0.061037,0.074465,0.141606,-0.004250,0.000000,0.299200,0.000000,0.000000,0.001382,0.000000,0.000979,0.000000,-0.015241,0.000000,0.000000,0.000000,0.000000,0.244860,0.000000,0.030548,5,0.000000,0.000000,0.000000,0.000000,0.000000,0.000000,0.000000,0.000000,0.000000,0.000000
32,946684902.461883,1,0.018393,0.017628,-9.803100,0.000000,-0.047609,0.019532,-0.004250,0.000000,0.299200,0.000000,0.000000,0.001430,0.000000,0.001035,0.000000,-0.015237,0.000000,0.000000,0.000000,0.000000,0.244860,0.000000,0.030548,5,0.000000,0.000000,0.000000,0.000000,0.000000,0.000000,0.000000,0.000000,0.000000,0.000000
33,946684902.462127,1,0.018393,0.017628,-9.803100,0.061037,0.135502,0.019532,-0.004250,0.000000,0.299200,0.000000,0.000000,0.001521,0.000000,0.001106,0.000000,-0.015232,0.000000,0.000000,0.000000,0.000000,0.244860,0.000000,0.030548,5,0.000000,0.000000,0.000000,0.000000,0.000000,0.000000,0.000000,0.000000,0.000000,0.000000
34,946684902.464416,1,0.018393,0.017628,-9.803100,0.000000,0.013428,0.019532,-0.004250,0.000000,0.299200,0.000000,0.000000,0.001610,0.000000,0.001163,0.000000,-0.015188,0.000000,0.000000,0.000000,0.000000,0.244860,0.000000,0.030548,5,0.000000,0.000000,0.000000,0.000000,0.000000,0.000000,0.000000,0.000000,0.000000,0.000000
35,946684902.464660,1,0.018393,0.017628,-9.803100,0.000000,0.074465,-0.041505,-0.004250,0.000000,0.299200,0.000000,0.000000,0.001687,0.000000,0.001219,0.000000,-0.015198,0.000000,0.000000,0.000000,0.000000,0.244860,0.000000,0.030548,5,0.000000,0.000000,0.000000,0.000000,0.000000,0.000000,0.000000,0.000000,0.000000,0.000000
36,946684902.464874,1,0.018393,0.017628,-9.803100,0.000000,0.013428,-0.041505,-0.004250,0.000000,0.299200,0.000000,0.000000,0.001748,0.000000,0.001275,0.000000,-0.015207,0.000000,0.000000,0.000000,0.000000,0.244860,0.000000,0.030548,5,0.000000,0.000000,0.000000,0.000000,0.000000,0.000000,0.000000,0.000000,0.000000,0.000000
37,946684902.465087,1,0.018393,0.017628,-9.803100,0.000000,0.013428,0.019532,-0.004250,0.000000,0.299200,0.000000,0.000000,0.001810,0.000000,0.001332,0.000000,-0.015203,0.000000,0.000000,0.000000,0.000000,0.244860,0.000000,0.030548,5,0.000000,0.000000,0.000000,0.000000,0.000000,0.000000,0.000000,0.000000,0.000000,0.000000
38,946684902.465301,1,0.018393,0.017628,-9.803100,0.000000,0.135502,-0.041505,-0.004250,0.000000,0.299200,0.000000,0.000000,0.001897,0.000000,0.001388,0.000000,-0.015211,0.000000,0.000000,0.000000,0.000000,0.244860,0.000000,0.030548,5,0.000000,0.000000,0.000000,0.000000,0.000000,0.000000,0.000000,0.000000,0.000000,0.000000
39,946684902.465515,1,0.018393,0.017628,-9.803100,0.000000,0.074465,0.141606,-0.004250,0.000000,0.299200,0.000000,0.000000,0.001971,0.000000,0.001444,0.000000,-0.015181,0.000000,0.000000,0.000000,0.000000,0.244860,0.000000,0.030548,5,0.000000,0.000000,0.000000,0.000000,0.000000,0.000000,0.000000,0.000000,0.000000,0.000000
40,946684902.465789,1,0.018393,0.017628,-9.803100,0.061037,0.013428,-0.041505,-0.004250,0.000000,0.299200,0.000000,0.000000,0.002034,0.000000,0.001517,0.000000,-0.015193,0.000000,0.000000,0.000000,0.000000,0.244860,0.000000,0.030548,5,0.000000,0.000000,0.000000,0.000000,0.000000,0.000000,0.000000,0.000000,0.000000,0.000000
41,946684902.466735,1,0.018393,0.017628,-9.803100,0.000000,0.074465,0.019532,-0.004250,0.000000,0.299200,0.000000,0.000000,0.002162,0.000000,0.001574,0.000000,-0.015174,0.000000,0.000000,0.000000,0.000000,0.244860,0.000000,0.030548,5,0.000000,0.000000,0.000000,0.000000,0.000000,0.000000,0.000000,0.000000,0.000000,0.000000
42,946684902.467010,1,0.018393,0.017628,-9.803100,0.061037,0.074465,-0.102542,-0.004250,0.000000,0.299200,0.000000,0.000000,0.002241,0.000000,0.001647,0.000000,-0.015202,0.000000,0.000000,0.000000,0.000000,0.244860,0.000000,0.030548,5,0.000000,0.000000,0.000000,0.000000,0.000000,0.000000,0.000000,0.000000,0.000000,0.000000
43,946684902.470397,1,0.018393,0.017628,-9.803100,0.061037,0.135502,0.080569,-0.004250,0.000000,0.299200,0.000000,0.000000,0.002758,0.000000,0.001910,0.000000,-0.014929,0.000000,0.000000,0.000000,0.000000,0.244860,0.000000,0.030548,5,0.000000,0.000000,0.000000,0.000000,0.000000,0.000000,0.000000,0.000000,0.000000,0.000000
44,946684902.470642,1,0.018393,0.017628,-9.803100,0.000000,0.074465,0.019532,0.000000,0.000000,0.299200,0.000000,0.000000,0.002835,0.000000,0.001967,0.000000,-0.014925,0.000000,0.000000,0.000000,0.000000,0.244860,0.000000,0.030548,5,0.000000,0.000000,0.000000,0.000000,0.000000,0.000000,0.000000,0.000000,0.000000,0.000000
45,946684902.470886,1,0.018393,0.017628,-9.803100,0.000000,0.074465,0.019532,0.000000,0.000000,0.299200,0.000000,0.000000,0.002912,0.000000,0.002023,0.000000,-0.014920,0.000000,0.000000,0.000000,0.000000,0.244860,0.000000,0.030548,5,0.000000,0.000000,0.000000,0.000000,0.000000,0.000000,0.000000,0.000000,0.000000,0.000000
46,946684902.471099,1,-0.058248,0.017628,-9.879741,-0.061037,-0.169683,-0.102542,0.000000,0.000000,0.299200,0.000000,0.000000,0.002685,0.000000,0.002066,0.000000,-0.014942,0.000000,0.000000,0.000000,0.000000,0.244860,0.000000,0.030548,5,0.000000,0.000000,0.000000,0.000000,0.000000,0.000000,0.000000,0.000000,0.000000,0.000000
47,946684902.471374,1,-0.058248,-0.059012,-9.879741,-0.061037,0.013428,0.019532,0.000000,0.000000,0.299200,0.000000,0.000000,0.002498,0.000000,0.001857,0.000000,-0.014936,0.000000,0.000000,0.000000,0.000000,0.244860,0.000000,0.030548,5,0.000000,0.000000,0.000000,0.000000,0.000000,0.000000,0.000000,0.000000,0.000000,0.000000
48,946684902.471649,1,0.018393,0.017628,-9.879741,0.061037,-0.108646,0.019532,0.000000,0.000000,0.299200,0.000000,0.000000,0.002527,0.000000,0.001930,0.000000,-0.014931,0.000000,0.000000,0.000000,0.000000,0.244860,0.000000,0.030548,5,0.000000,0.000000,0.000000,0.000000,0.000000,0.000000,0.000000,0.000000,0.000000,0.000000
49,946684902.471954,1,0.018393,0.017628,-9.879741,0.000000,-0.047609,0.080569,0.000000,0.000000,0.299200,0.000000,0.000000,0.002571,0.000000,0.001986,0.000000,-0.014906,0.000000,0.000000,0.000000,0.000000,0.244860,0.000000,0.030548,5,0.000000,0.000000,0.000000,0.000000,0.000000,0.000000,0.000000,0.000000,0.000000,0.000000
50,946684902.472198,1,0.018393,0.017628,-9.803100,0.000000,0.074465,0.019532,0.000000,0.000000,0.299200,0.000000,0.000000,0.002647,0.000000,0.002043,0.000000,-0.014902,0.000000,0.000000,0.000000,0.000000,0.244860,0.000000,0.030548,5,0.000000,0.000000,0.000000,0.000000,0.000000,0.000000,0.000000,0.000000,0.000000,0.000000
51,946684902.472442,1,-0.058248,0.017628,-9.803100,-0.061037,0.013428,-0.102542,0.000000,0.000000,0.299200,0.000000,0.000000,0.002459,0.000000,0.002084,0.000000,-0.014927,0.000000,0.000000,0.000000,0.000000,0.244860,0.000000,0.030548,5,0.000000,0.000000,0.000000,0.000000,0.000000,0.000000,0.000000,0.000000,0.000000,0.000000
52,946684902.472625,1,0.018393,0.017628,-9.879741,0.000000,-0.047609,0.019532,0.000000,0.000000,0.299200,0.000000,0.000000,0.002508,0.000000,0.002141,0.000000,-0.014923,0.000000,0.000000,0.000000,0.000000,0.244860,0.000000,0.030548,5,0.000000,0.000000,0.000000,0.000000,0.000000,0.000000,0.000000,0.000000,0.000000,0.000000
53,946684902.472839,1,0.018393,0.017628,-9.803100,-0.122074,-0.047609,-0.102542,0.000000,0.000000,0.299200,0.000000,0.000000,0.002557,0.000000,0.002171,0.000000,-0.014945,0.000000,0.000000,0.000000,0.000000,0.244860,0.000000,0.030548,5,0.000000,0.000000,0.000000,0.000000,0.000000,0.000000,0.000000,0.000000,0.000000,0.000000
54,946684902.473052,1,0.018393,0.017628,-9.803100,-0.061037,-0.047609,0.019532,0.000000,0.000000,0.299200,0.000000,0.000000,0.002605,0.000000,0.002214,0.000000,-0.014941,0.000000,0.000000,0.000000,0.000000,0.244860,0.000000,0.030548,5,0.000000,0.000000,0.000000,0.000000,0.000000,0.000000,0.000000,0.000000,0.000000,0.000000
55,946684902.473266,1,0.018393,0.017628,-9.803100,0.000000,0.013428,0.080569,0.000000,0.000000,0.299200,0.000000,0.000000,0.002667,0.000000,0.002271,0.000000,-0.014924,0.000000,0.000000,0.000000,0.000000,0.244860,0.000000,0.030548,5,0.000000,0.000000,0.000000,0.000000,0.000000,0.000000,0.000000,0.000000,0.000000,0.000000
56,946684902.473693,1,0.018393,0.017628,-9.803100,0.000000,-0.047609,-0.102542,0.000000,0.000000,0.299200,0.000000,0.000000,0.002705,0.000000,0.002327,0.000000,-0.014967,0.000000,0.000000,0.000000,0.000000,0.244860,0.000000,0.030548,5,0.000000,0.000000,0.000000,0.000000,0.000000,0.000000,0.000000,0.000000,0.000000,0.000000
57,946684902.476501,1,0.018393,0.017628,-9.803100,-0.061037,0.135502,0.019532,0.000000,0.000000,0.299200,0.000000,0.000000,0.003145,0.000000,0.002213,0.000000,-0.014913,0.000000,0.000000,0.000000,0.000000,0.244860,0.000000,0.030548,5,0.000000,0.000000,0.000000,0.000000,0.000000,0.000000,0.000000,0.000000,0.000000,0.000000
58,946684902.476806,1,0.018393,0.017628,-9.803100,0.000000,0.135502,0.080569,0.000000,0.000000,0.299200,0.000000,0.000000,0.003245,0.000000,0.002270,0.000000,-0.014888,0.000000,0.000000,0.000000,0.000000,0.244860,0.000000,0.030548,5,0.000000,0.000000,0.000000,0.000000,0.000000,0.000000,0.000000,0.000000,0.000000,0.000000
59,946684902.477081,1,0.018393,0.017628,-9.803100,-0.061037,-0.047609,-0.041505,0.000000,0.000000,0.299200,0.000000,0.000000,0.003291,0.000000,0.002310,0.000000,-0.014899,0.000000,0.000000,0.000000,0.000000,0.244860,0.000000,0.030548,5,0.000000,0.000000,0.000000,0.000000,0.000000,0.000000,0.000000,0.000000,0.000000,0.000000
60,946684902.477264,1,0.018393,0.017628,-9.803100,0.000000,-0.169683,-0.102542,0.000000,0.000000,0.299200,0.000000,0.000000,0.003318,0.000000,0.002367,0.000000,-0.014918,0.000000,0.000000,0.000000,0.000000,0.244860,0.000000,0.030548,5,0.000000,0.000000,0.000000,0.000000,0.000000,0.000000,0.000000,0.000000,0.000000,0.000000
61,946684902.477539,1,0.018393,0.017628,-9.803100,0.000000,-0.047609,-0.041505,0.000000,0.000000,0.299200,0.000000,0.000000,0.003364,0.000000,0.002424,0.000000,-0.014930,0.000000,0.000000,0.000000,0.000000,0.244860,0.000000,0.030548,5,0.000000,0.000000,0.000000,0.000000,0.000000,0.000000,0.000000,0.000000,0.000000,0.000000
62,946684902.478088,1,-0.058248,0.017628,-9.803100,0.122074,-0.047609,0.080569,0.000000,0.000000,0.299200,0.000000,0.000000,0.003144,0.000000,0.002548,0.000000,-0.014885,0.000000,0.000000,0.000000,0.000000,0.244860,0.000000,0.030548,5,0.000000,0.000000,0.000000,0.000000,0.000000,0.000000,0.000000,0.000000,0.000000,0.000000
63,946684902.478393,1,-0.058248,0.017628,-9.803100,0.061037,0.074465,-0.163579,0.000000,0.000000,0.299200,0.000000,0.000000,0.002972,0.000000,0.002624,0.000000,-0.014935,0.000000,0.000000,0.000000,0.000000,0.244860,0.000000,0.030548,5,0.000000,0.000000,0.000000,0.000000,0.000000,0.000000,0.000000,0.000000,0.000000,0.000000
64,946684902.478576,1,-0.058248,0.017628,-9.726460,0.000000,0.013428,0.019532,0.000000,0.000000,0.299200,0.000000,0.000000,0.002779,0.000000,0.002681,0.000000,-0.014932,0.000000,0.000000,0.000000,0.000000,0.244860,0.000000,0.030548,5,0.000000,0.000000,0.000000,0.000000,0.000000,0.000000,0.000000,0.000000,0.000000,0.000000
65,946684902.479309,1,-0.058248,0.017628,-9.726460,0.000000,0.013428,0.019532,0.000000,0.000000,0.299200,0.000000,0.000000,0.002593,0.000000,0.002738,0.000000,-0.014917,0.000000,0.000000,0.000000,0.000000,0.244860,0.000000,0.030548,5,0.000000,0.000000,0.000000,0.000000,0.000000,0.000000,0.000000,0.000000,0.000000,0.000000
66,946684902.479614,1,0.018393,0.017628,-9.803100,0.000000,0.013428,-0.102542,0.000000,0.000000,0.299200,0.000000,0.000000,0.002656,0.000000,0.002795,0.000000,-0.014949,0.000000,0.000000,0.000000,0.000000,0.000000,0.000000,0.042481,6,0.000000,0.000000,0.000000,0.000000,0.000000,0.000000,0.000000,0.000000,0.000000,0.000000
67,946684902.480102,1,0.018393,0.017628,-9.803100,0.000000,0.074465,-0.041505,0.000000,0.000000,0.299200,0.000000,0.000000,0.002752,0.000000,0.002852,0.000000,-0.014969,0.000000,0.000000,0.000000,0.000000,0.000000,0.000000,0.042481,6,0.000000,0.000000,0.000000,0.000000,0.000000,0.000000,0.000000,0.000000,0.000000,0.000000
68,946684902.480438,1,0.018393,0.017628,-9.726460,-0.122074,0.013428,0.080569,0.004250,0.000000,0.299540,0.000000,0.000000,0.002816,0.000000,0.002868,0.000000,-0.014942,0.000000,0.000000,0.000000,0.000000,0.000000,0.000000,0.042481,6,0.000000,0.000000,0.000000,0.000000,0.000000,0.000000,0.000000,0.000000,0.000000,0.000000
69,946684902.480773,1,0.018393,0.017628,-9.726460,0.122074,0.074465,-0.041505,0.004250,0.000000,0.299540,0.000000,0.000000,0.002901,0.000000,0.002966,0.000000,-0.014956,0.000000,0.000000,0.000000,0.000000,0.000000,0.000000,0.042481,6,0.000000,0.000000,0.000000,0.000000,0.000000,0.000000,0.000000,0.000000,0.000000,0.000000
70,946684902.481079,1,0.018393,0.017628,-9.803100,-0.061037,0.074465,-0.041505,0.004250,0.000000,0.299540,0.000000,0.000000,0.002983,0.000000,0.003005,0.000000,-0.014968,0.000000,0.000000,0.000000,0.000000,0.000000,0.000000,0.042481,6,0.000000,0.000000,0.000000,0.000000,0.000000,0.000000,0.000000,0.000000,0.000000,0.000000
71,946684902.481384,1,0.018393,0.017628,-9.803100,0.122074,0.074465,0.080569,0.004250,0.000000,0.299540,0.000000,0.000000,0.003065,0.000000,0.003099,0.000000,-0.014944,0.000000,0.000000,0.000000,0.000000,0.000000,0.000000,0.042481,6,0.000000,0.000000,0.000000,0.000000,0.000000,0.000000,0.000000,0.000000,0.000000,0.000000
72,946684902.481781,1,0.018393,0.017628,-9.803100,-0.061037,-0.047609,-0.041505,0.004250,0.000000,0.299540,0.000000,0.000000,0.003105,0.000000,0.003131,0.000000,-0.014960,0.000000,0.000000,0.000000,0.000000,0.000000,0.000000,0.042481,6,0.000000,0.000000,0.000000,0.000000,0.000000,0.000000,0.000000,0.000000,0.000000,0.000000
73,946684902.482116,1,0.018393,0.017628,-9.803100,0.000000,-0.047609,0.019532,0.004250,0.000000,0.299540,0.000000,0.000000,0.003149,0.000000,0.003188,0.000000,-0.014954,0.000000,0.000000,0.000000,0.000000,0.000000,0.000000,0.042481,6,0.000000,0.000000,0.000000,0.000000,0.000000,0.000000,0.000000,0.000000,0.000000,0.000000
74,946684902.482513,1,0.018393,0.017628,-9.803100,0.061037,0.074465,0.080569,0.004250,0.000000,0.299540,0.000000,0.000000,0.003238,0.000000,0.003269,0.000000,-0.014922,0.000000,0.000000,0.000000,0.000000,0.000000,0.000000,0.042481,6,0.000000,0.000000,0.000000,0.000000,0.000000,0.000000,0.000000,0.000000,0.000000,0.000000
75,946684902.482849,1,0.018393,0.017628,-9.803100,0.000000,0.074465,-0.041505,0.004250,0.000000,0.299540,0.000000,0.000000,0.003322,0.000000,0.003326,0.000000,-0.014936,0.000000,0.000000,0.000000,0.000000,0.000000,0.000000,0.042481,6,0.000000,0.000000,0.000000,0.000000,0.000000,0.000000,0.000000,0.000000,0.000000,0.000000
76,946684902.483154,1,-0.058248,0.017628,-9.803100,0.000000,-0.047609,-0.041505,0.000001,0.000000,0.299200,0.000000,0.000000,0.003112,0.000000,0.003383,0.000000,-0.014948,0.000000,0.000000,0.000000,0.000000,0.000000,0.000000,0.042481,6,0.000000,0.000000,0.000000,0.000000,0.000000,0.000000,0.000000,0.000000,0.000000,0.000000
77,946684902.483459,1,-0.058248,0.017628,-9.879741,-0.061037,0.013428,0.019532,0.000001,0.000000,0.299200,0.000000,0.000000,0.002922,0.000000,0.003420,0.000000,-0.014942,0.000000,0.000000,0.000000,0.000000,0.000000,0.000000,0.042481,6,0.000000,0.000000,0.000000,0.000000,0.000000,0.000000,0.000000,0.000000,0.000000,0.000000
78,946684902.483764,1,-0.058248,0.017628,-9.803100,-0.061037,0.074465,0.019532,0.000001,0.000000,0.299200,0.000000,0.000000,0.002749,0.000000,0.003459,0.000000,-0.014936,0.000000,0.000000,0.000000,0.000000,0.000000,0.000000,0.042481,6,0.000000,0.000000,0.000000,0.000000,0.000000,0.000000,0.000000,0.000000,0.000000,0.000000
79,946684902.484069,1,0.018393,0.017628,-9.803100,0.122074,0.013428,0.019532,0.000001,0.000000,0.299200,0.000000,0.000000,0.002813,0.000000,0.003553,0.000000,-0.014930,0.000000,0.000000,0.000000,0.000000,0.000000,0.000000,0.042481,6,0.000000,0.000000,0.000000,0.000000,0.000000,0.000000,0.000000,0.000000,0.000000,0.000000
80,946684902.484405,1,0.018393,0.017628,-9.803100,0.000000,0.135502,0.019532,0.000001,0.000000,0.299200,0.000000,0.000000,0.002918,0.000000,0.003609,0.000000,-0.014924,0.000000,0.000000,0.000000,0.000000,0.000000,0.000000,0.042481,6,0.000000,0.000000,0.000000,0.000000,0.000000,0.000000,0.000000,0.000000,0.000000,0.000000
81,946684902.484741,1,0.018393,0.017628,-9.803100,-0.061037,0.074465,0.080569,0.000001,0.000000,0.299200,0.000000,0.000000,0.003002,0.000000,0.003645,0.000000,-0.014897,0.000000,0.000000,0.000000,0.000000,0.000000,0.000000,0.042481,6,0.000000,0.000000,0.000000,0.000000,0.000000,0.000000,0.000000,0.000000,0.000000,0.000000
82,946684902.487365,1,0.018393,-0.059012,-9.803100,0.000000,-0.047609,-0.041505,0.000001,0.000000,0.299200,0.000000,0.000000,0.002937,0.000000,0.003446,0.000000,-0.015006,0.000000,0.000000,0.000000,0.000000,0.000000,0.000000,0.042481,6,0.000000,0.000000,0.000000,0.000000,0.000000,0.000000,0.000000,0.000000,0.000000,0.000000
83,946684902.492370,1,0.018393,-0.059012,-9.803100,0.000000,-0.047609,0.019532,0.000001,0.000000,0.299200,0.000000,0.000000,0.002759,0.000000,0.003245,0.000000,-0.014908,0.000000,0.000000,0.000000,0.000000,0.000000,0.000000,0.042481,6,0.000000,0.000000,0.000000,0.000000,0.000000,0.000000,0.000000,0.000000,0.000000,0.000000
84,946684902.497802,1,0.018393,0.017628,-9.803100,0.061037,-0.047609,0.019532,0.000000,0.000000,0.299540,0.000000,0.000000,0.002562,0.000000,0.003636,0.000000,-0.014802,0.000000,0.000000,0.000000,0.000000,0.000000,0.000000,0.042481,6,0.000000,0.000000,0.000000,0.000000,0.000000,0.000000,0.000000,0.000000,0.000000,0.000000
85,946684902.502502,1,0.018393,0.017628,-9.803100,0.000000,0.135502,0.019532,0.000000,0.000000,0.299540,0.000000,0.000000,0.003261,0.000000,0.003697,0.000000,-0.014710,0.000000,0.000000,0.000000,0.000000,0.000000,0.000000,0.042481,6,0.000000,0.000000,0.000000,0.000000,0.000000,0.000000,0.000000,0.000000,0.000000,0.000000
86,946684902.507476,1,0.018393,0.017628,-9.803100,0.000000,0.074465,-0.041505,0.000000,0.000000,0.299540,0.000000,0.000000,0.003694,0.000000,0.003758,0.000000,-0.014917,0.000000,0.000000,0.000000,0.000000,0.000000,0.000000,0.042481,6,0.000000,0.000000,0.000000,0.000000,0.000000,0.000000,0.000000,0.000000,0.000000,0.000000
87,946684902.512481,1,0.018393,0.017628,-9.803100,-0.061037,-0.108646,-0.041505,0.000000,0.000000,0.299540,0.000000,0.000000,0.003213,0.000000,0.003514,0.000000,-0.015124,0.000000,0.000000,0.000000,0.000000,0.000000,0.000000,0.042481,6,0.000000,0.000000,0.000000,0.000000,0.000000,0.000000,0.000000,0.000000,0.000000,0.000000
88,946684902.517517,1,0.018393,0.017628,-9.803100,0.061037,0.013428,0.080569,0.000000,0.000000,0.299540,0.000000,0.000000,0.003345,0.000000,0.003885,0.000000,-0.014719,0.000000,0.000000,0.000000,0.000000,0.000000,0.000000,0.042481,6,0.000000,0.000000,0.000000,0.000000,0.000000,0.000000,0.000000,0.000000,0.000000,0.000000
89,946684902.522491,1,0.018393,0.017628,-9.879741,-0.122074,0.135502,0.019532,0.000000,0.000000,0.299540,0.000000,0.000000,0.004084,0.000000,0.003341,0.000000,-0.014621,0.000000,0.000000,0.000000,0.000000,0.000000,0.000000,0.042481,6,0.000000,0.000000,0.000000,0.000000,0.000000,0.000000,0.000000,0.000000,0.000000,0.000000
90,946684902.527526,1,0.018393,0.017628,-9.879741,-0.122074,0.013428,0.019532,0.000000,0.000000,0.299540,0.000000,0.000000,0.004217,0.000000,0.002791,0.000000,-0.014523,0.000000,0.000000,0.000000,0.000000,0.000000,0.000000,0.042481,6,0.000000,0.000000,0.000000,0.000000,0.000000,0.000000,0.000000,0.000000,0.000000,0.000000
91,946684902.532562,1,0.018393,0.017628,-9.803100,0.000000,0.196539,0.080569,0.000000,0.000000,0.299540,0.000000,0.000000,0.005272,0.000000,0.002857,0.000000,-0.014117,0.000000,0.000000,0.000000,0.000000,0.000000,0.000000,0.049499,7,0.000000,0.000000,0.000000,0.000000,0.000000,0.000000,0.000000,0.000000,0.000000,0.000000
92,946684902.537628,1,0.018393,0.017628,-9.803100,0.000000,0.013428,-0.041505,0.004250,0.000000,0.299540,0.000000,0.000000,0.005407,0.000000,0.002924,0.000000,-0.014328,0.000000,0.000000,0.000000,0.000000,0.000000,0.000000,0.049499,7,0.000000,0.000000,0.000000,0.000000,0.000000,0.000000,0.000000,0.000000,0.000000,0.000000
93,946684902.542572,1,0.018393,0.017628,-9.879741,-0.061037,-0.108646,0.019532,0.004250,0.000000,0.299540,0.000000,0.000000,0.004938,0.000000,0.002690,0.000000,-0.014231,0.000000,0.000000,0.000000,0.000000,0.000000,0.000000,0.049499,7,0.000000,0.000000,0.000000,0.000000,0.000000,0.000000,0.000000,0.000000,0.000000,0.000000
94,946684902.547576,1,0.018393,0.017628,-9.879741,-0.061037,0.013428,-0.041505,0.004250,0.000000,0.299540,0.000000,0.000000,0.005073,0.000000,0.002453,0.000000,-0.014439,0.000000,0.000000,0.000000,0.000000,0.000000,0.000000,0.049499,7,0.000000,0.000000,0.000000,0.000000,0.000000,0.000000,0.000000,0.000000,0.000000,0.000000
95,946684902.552551,1,0.018393,0.017628,-9.803100,-0.122074,0.074465,0.019532,0.004250,0.000000,0.299540,0.000000,0.000000,0.005513,0.000000,0.001916,0.000000,-0.014342,0.000000,0.000000,0.000000,0.000000,0.000000,0.000000,0.049499,7,0.000000,0.000000,0.000000,0.000000,0.000000,0.000000,0.000000,0.000000,0.000000,0.000000
96,946684902.557586,1,0.018393,0.017628,-9.803100,0.000000,0.074465,0.080569,0.004250,0.000000,0.299540,0.000000,0.000000,0.005958,0.000000,0.001988,0.000000,-0.013936,0.000000,0.000000,0.000000,0.000000,0.000000,0.000000,0.049499,7,0.000000,0.000000,0.000000,0.000000,0.000000,0.000000,0.000000,0.000000,0.000000,0.000000
97,946684902.562591,1,0.018393,0.017628,-9.879741,0.061037,0.013428,-0.041505,0.004250,0.000000,0.299540,0.000000,0.000000,0.006096,0.000000,0.002365,0.000000,-0.014144,0.000000,0.000000,0.000000,0.000000,0.000000,0.000000,0.031800,8,0.000000,0.000000,0.000000,0.000000,0.000000,0.000000,0.000000,0.000000,0.000000,0.000000
98,946684902.567626,1,-0.058248,-0.059012,-9.803100,0.000000,-0.047609,0.019532,0.004250,0.000000,0.299540,0.000000,0.000000,0.005613,0.000000,0.002122,0.000000,-0.014045,0.000000,0.000000,0.000000,0.000000,0.000000,0.000000,0.031800,8,0.000000,0.000000,0.000000,0.000000,0.000000,0.000000,0.000000,0.000000,0.000000,0.000000
99,946684902.572631,1,0.018393,-0.059012,-9.879741,0.000000,0.074465,0.080569,0.004250,0.000000,0.299540,0.000000,0.000000,0.006058,0.000000,0.001877,0.000000,-0.013642,0.000000,0.000000,0.000000,0.000000,0.000000,0.000000,0.031800,8,0.000000,0.000000,0.000000,0.000000,0.000000,0.000000,0.000000,0.000000,0.000000,0.000000
100,946684902.577789,1,0.018393,-0.059012,-9.879741,0.000000,0.013428,-0.041505,0.000000,0.000000,0.299540,0.000000,0.000000,0.006200,0.000000,0.001629,0.000000,-0.013856,0.000000,0.000000,0.000000,0.000000,0.000000,0.000000,0.031800,8,0.000000,0.000000,0.000000,0.000000,0.000000,0.000000,0.000000,0.000000,0.000000,0.000000
101,946684902.582702,1,-0.058248,-0.059012,-9.879741,-0.122074,0.074465,0.019532,0.000000,0.000000,0.299540,0.000000,0.000000,0.006314,0.000000,0.000779,0.000000,-0.013760,0.000000,0.000000,0.000000,0.000000,0.000000,0.000000,0.031800,8,0.000000,0.000000,0.000000,0.000000,0.000000,0.000000,0.000000,0.000000,0.000000,0.000000
102,946684902.587707,1,-0.058248,-0.059012,-9.803100,0.000000,0.135502,0.019532,0.000000,0.000000,0.299540,0.000000,0.000000,0.006734,0.000000,0.000523,0.000000,-0.013662,0.000000,0.000000,0.000000,0.000000,0.000000,0.000000,0.031800,8,0.000000,0.000000,0.000000,0.000000,0.000000,0.000000,0.000000,0.000000,0.000000,0.000000
103,946684902.592681,1,0.018393,-0.059012,-9.803100,0.000000,0.013428,-0.041505,0.000000,0.000000,0.299540,0.000000,0.000000,0.006876,0.000000,0.000263,0.000000,-0.013869,0.000000,0.000000,0.000000,0.000000,0.000000,0.000000,0.031189,9,0.000000,0.000000,0.000000,0.000000,0.000000,0.000000,0.000000,0.000000,0.000000,0.000000
104,946684902.597717,1,0.018393,0.017628,-9.803100,-0.122074,0.013428,0.019532,0.000000,0.000000,0.299540,0.000000,0.000000,0.007020,0.000000,-0.000274,0.000000,-0.013770,0.000000,0.000000,0.000000,0.000000,0.000000,0.000000,0.031189,9,0.000000,0.000000,0.000000,0.000000,0.000000,0.000000,0.000000,0.000000,0.000000,0.000000
105,946684902.602722,1,0.018393,0.017628,-9.803100,-0.061037,-0.047609,0.019532,0.000000,0.000000,0.299540,0.000000,0.000000,0.006859,0.000000,-0.000500,0.000000,-0.013673,0.000000,0.000000,0.000000,0.000000,0.000000,0.000000,0.031189,9,0.000000,0.000000,0.000000,0.000000,0.000000,0.000000,0.000000,0.000000,0.000000,0.000000
106,946684902.607757,1,0.018393,0.017628,-9.803100,-0.061037,0.013428,0.019532,0.000000,0.000000,0.299540,0.000000,0.000000,0.007005,0.000000,-0.000726,0.000000,-0.013574,0.000000,0.000000,0.000000,0.000000,0.000000,0.000000,0.031189,9,0.000000,0.000000,0.000000,0.000000,0.000000,0.000000,0.000000,0.000000,0.000000,0.000000
107,946684902.612762,1,-0.058248,0.017628,-9.803100,0.000000,0.013428,-0.041505,0.000000,0.000000,0.299540,0.000000,0.000000,0.006798,0.000000,-0.000644,0.000000,-0.013782,0.000000,0.000000,0.000000,0.000000,0.000000,0.000000,0.031189,9,0.000000,0.000000,0.000000,0.000000,0.000000,0.000000,0.000000,0.000000,0.000000,0.000000
108,946684902.617919,1,0.018393,0.017628,-9.803100,0.000000,0.074465,0.019532,0.000000,0.000000,0.299540,0.000000,0.000000,0.007262,0.000000,-0.000561,0.000000,-0.013681,0.000000,0.000000,0.000000,0.000000,0.000000,0.000000,0.031189,9,0.000000,0.000000,0.000000,0.000000,0.000000,0.000000,0.000000,0.000000,0.000000,0.000000
109,946684902.622833,1,0.018393,0.017628,-9.803100,0.122074,0.013428,-0.041505,0.000000,0.000000,0.299540,0.000000,0.000000,0.007409,0.000000,0.000122,0.000000,-0.013885,0.000000,0.000000,0.000000,0.000000,0.000000,0.000000,0.031189,9,0.000000,0.000000,0.000000,0.000000,0.000000,0.000000,0.000000,0.000000,0.000000,0.000000
110,946684902.627838,1,0.018393,0.017628,-9.803100,0.000000,-0.047609,-0.041505,0.000000,0.000000,0.299540,0.000000,0.000000,0.007253,0.000000,0.000207,0.000000,-0.014093,0.000000,0.000000,0.000000,0.000000,0.000000,0.000000,0.031677,10,0.000000,0.000000,0.000000,0.000000,0.000000,0.000000,0.000000,0.000000,0.000000,0.000000
111,946684902.632812,1,0.018393,0.017628,-9.803100,-0.061037,-0.047609,0.019532,0.000000,0.000000,0.299540,0.000000,0.000000,0.007100,0.000000,-0.000010,0.000000,-0.013996,0.000000,0.000000,0.000000,0.000000,0.000000,0.000000,0.031677,10,0.000000,0.000000,0.000000,0.000000,0.000000,0.000000,0.000000,0.000000,0.000000,0.000000
112,946684902.637878,1,0.018393,0.017628,-9.803100,0.000000,0.074465,0.019532,0.000000,0.000000,0.299540,0.000000,0.000000,0.007561,0.000000,0.000077,0.000000,-0.013897,0.000000,0.000000,0.000000,0.000000,0.000000,0.000000,0.031677,10,0.000000,0.000000,0.000000,0.000000,0.000000,0.000000,0.000000,0.000000,0.000000,0.000000
113,946684902.642883,1,0.018393,0.017628,-9.803100,0.061037,-0.047609,-0.041505,0.000000,0.000000,0.299540,0.000000,0.000000,0.007409,0.000000,0.000471,0.000000,-0.014105,0.000000,0.000000,0.000000,0.000000,0.000000,0.000000,0.031677,10,0.000000,0.000000,0.000000,0.000000,0.000000,0.000000,0.000000,0.000000,0.000000,0.000000
114,946684902.647888,1,0.018393,0.017628,-9.803100,0.061037,0.074465,0.141606,0.000000,0.000000,0.299540,0.000000,0.000000,0.007868,0.000000,0.000866,0.000000,-0.013396,0.000000,0.000000,0.000000,0.000000,0.000000,0.000000,0.031677,10,0.000000,0.000000,0.000000,0.000000,0.000000,0.000000,0.000000,0.000000,0.000000,0.000000
115,946684902.652893,1,0.018393,0.017628,-9.803100,0.000000,0.074465,0.080569,0.000000,0.000000,0.299540,0.000000,0.000000,0.008328,0.000000,0.000957,0.000000,-0.012993,0.000000,0.000000,0.000000,0.000000,0.000000,0.000000,0.031677,10,0.000000,0.000000,0.000000,0.000000,0.000000,0.000000,0.000000,0.000000,0.000000,0.000000
116,946684902.658050,1,0.018393,0.017628,-9.803100,0.061037,0.013428,0.019532,-0.004250,0.000000,0.299200,0.000000,0.000000,0.008486,0.000000,0.001363,0.000000,-0.012892,0.000000,0.000000,0.000000,0.000000,0.000000,0.000000,0.032593,11,0.000000,0.000000,0.000000,0.000000,0.000000,0.000000,0.000000,0.000000,0.000000,0.000000
117,946684902.662963,1,0.018393,0.017628,-9.803100,0.000000,0.196539,0.080569,-0.004250,0.000000,0.299200,0.000000,0.000000,0.009541,0.000000,0.001456,0.000000,-0.012496,0.000000,0.000000,0.000000,0.000000,0.000000,0.000000,0.032593,11,0.000000,0.000000,0.000000,0.000000,0.000000,0.000000,0.000000,0.000000,0.000000,0.000000
118,946684902.667968,1,0.018393,0.017628,-9.803100,0.000000,-0.047609,-0.041505,-0.004250,0.000000,0.299200,0.000000,0.000000,0.009393,0.000000,0.001550,0.000000,-0.012704,0.000000,0.000000,0.000000,0.000000,0.000000,0.000000,0.032593,11,0.000000,0.000000,0.000000,0.000000,0.000000,0.000000,0.000000,0.000000,0.000000,0.000000
119,946684902.672973,1,0.018393,0.017628,-9.803100,0.000000,-0.047609,-0.041505,-0.004250,0.000000,0.299200,0.000000,0.000000,0.009246,0.000000,0.001645,0.000000,-0.012912,0.000000,0.000000,0.000000,0.000000,0.000000,0.000000,0.032593,11,0.000000,0.000000,0.000000,0.000000,0.000000,0.000000,0.000000,0.000000,0.000000,0.000000
120,946684902.678009,1,0.018393,0.017628,-9.803100,-0.061037,0.135502,-0.041505,-0.004250,0.000000,0.299200,0.000000,0.000000,0.010021,0.000000,0.001434,0.000000,-0.013121,0.000000,0.000000,0.000000,0.000000,0.000000,0.000000,0.032593,11,0.000000,0.000000,0.000000,0.000000,0.000000,0.000000,0.000000,0.000000,0.000000,0.000000
121,946684902.683013,1,0.018393,0.017628,-9.803100,-0.061037,-0.047609,-0.041505,-0.004250,0.000000,0.299200,0.000000,0.000000,0.009877,0.000000,0.001227,0.000000,-0.013328,0.000000,0.000000,0.000000,0.000000,0.000000,0.000000,0.032593,11,0.000000,0.000000,0.000000,0.000000,0.000000,0.000000,0.000000,0.000000,0.000000,0.000000
122,946684902.688049,1,0.018393,0.017628,-9.803100,0.000000,-0.108646,-0.102542,-0.004250,0.000000,0.299200,0.000000,0.000000,0.009425,0.000000,0.001327,0.000000,-0.013845,0.000000,0.000000,0.000000,0.000000,0.000000,0.000000,0.032593,11,0.000000,0.000000,0.000000,0.000000,0.000000,0.000000,0.000000,0.000000,0.000000,0.000000
123,946684902.693023,1,0.018393,0.017628,-9.803100,0.000000,0.013428,0.019532,-0.004250,0.000000,0.299200,0.000000,0.000000,0.009589,0.000000,0.001428,0.000000,-0.013748,0.000000,0.000000,0.000000,0.000000,-0.088807,0.088807,0.033691,12,0.000000,0.000000,0.000000,0.000000,0.000000,0.000000,0.000000,0.000000,0.000000,0.000000
124,946684902.698181,1,0.018393,0.017628,-9.803100,0.000000,-0.108646,0.080569,-0.004250,0.000000,0.299200,0.000000,0.000000,0.009127,0.000000,0.001530,0.000000,-0.013332,0.000000,0.000000,0.000000,0.000000,-0.088807,0.088807,0.033691,12,0.000000,0.000000,0.000000,0.000000,0.000000,0.000000,0.000000,0.000000,0.000000,0.000000
125,946684902.703094,1,0.018393,0.017628,-9.803100,0.061037,0.013428,-0.102542,-0.004250,0.000000,0.299200,0.000000,0.000000,0.009293,0.000000,0.001934,0.000000,-0.013836,0.000000,0.000000,0.000000,0.000000,-0.088807,0.088807,0.033691,12,0.000000,0.000000,0.000000,0.000000,0.000000,0.000000,0.000000,0.000000,0.000000,0.000000
126,946684902.708099,1,0.018393,0.017628,-9.803100,0.000000,-0.047609,0.019532,-0.004250,0.000000,0.299200,0.000000,0.000000,0.009156,0.000000,0.002038,0.000000,-0.013738,0.000000,0.000000,0.000000,0.000000,-0.088807,0.088807,0.033691,12,0.000000,0.000000,0.000000,0.000000,0.000000,0.000000,0.000000,0.000000,0.000000,0.000000
127,946684902.713104,1,0.018393,0.017628,-9.803100,0.000000,-0.047609,0.080569,-0.004250,0.000000,0.299200,0.000000,0.000000,0.009021,0.000000,0.002145,0.000000,-0.013335,0.000000,0.000000,0.000000,0.000000,-0.088807,0.088807,0.033691,12,0.000000,0.000000,0.000000,0.000000,0.000000,0.000000,0.000000,0.000000,0.000000,0.000000
128,946684902.718139,1,0.018393,0.017628,-9.803100,-0.122074,0.135502,-0.041505,-0.004250,0.000000,0.299200,0.000000,0.000000,0.009807,0.000000,0.001638,0.000000,-0.013544,0.000000,0.000000,0.000000,0.000000,-0.088807,0.088807,0.033691,12,0.000000,0.000000,0.000000,0.000000,0.000000,0.000000,0.000000,0.000000,0.000000,0.000000
129,946684902.723144,1,0.018393,0.017628,-9.803100,-0.061037,0.074465,0.019532,-0.004250,0.000000,0.299200,0.000000,0.000000,0.010284,0.000000,0.001442,0.000000,-0.013446,0.000000,0.000000,0.000000,0.000000,0.000000,0.000000,0.032776,13,0.000000,0.000000,0.000000,0.000000,0.000000,0.000000,0.000000,0.000000,0.000000,0.000000
130,946684902.728179,1,0.018393,0.017628,-9.803100,-0.061037,-0.108646,0.019532,-0.004250,0.000000,0.299200,0.000000,0.000000,0.009844,0.000000,0.001247,0.000000,-0.013348,0.000000,0.000000,0.000000,0.000000,0.000000,0.000000,0.032776,13,0.000000,0.000000,0.000000,0.000000,0.000000,0.000000,0.000000,0.000000,0.000000,0.000000
131,946684902.733154,1,0.018393,0.017628,-9.803100,0.061037,0.074465,-0.102542,-0.004250,0.000000,0.299200,0.000000,0.000000,0.010322,0.000000,0.001663,0.000000,-0.013858,0.000000,0.000000,0.000000,0.000000,0.000000,0.000000,0.032776,13,0.000000,0.000000,0.000000,0.000000,0.000000,0.000000,0.000000,0.000000,0.000000,0.000000
132,946684902.738464,1,0.018393,0.017628,-9.803100,0.061037,-0.047609,-0.041505,0.004250,0.000000,0.299540,0.000000,0.000000,0.010179,0.000000,0.002102,0.000000,-0.014078,0.000000,0.000000,0.000000,0.000000,0.000000,0.000000,0.032776,13,0.000000,0.000000,0.000000,0.000000,0.000000,0.000000,0.000000,0.000000,0.000000,0.000000
133,946684902.743225,1,0.018393,0.017628,-9.879741,-0.122074,0.013428,-0.041505,0.004250,0.000000,0.299540,0.000000,0.000000,0.010352,0.000000,0.001635,0.000000,-0.014276,0.000000,0.000000,0.000000,0.000000,0.000000,0.000000,0.032776,13,0.000000,0.000000,0.000000,0.000000,0.000000,0.000000,0.000000,0.000000,0.000000,0.000000
134,946684902.748229,1,0.018393,0.017628,-9.879741,0.061037,0.135502,0.019532,0.004250,0.000000,0.299540,0.000000,0.000000,0.011141,0.000000,0.002057,0.000000,-0.014178,0.000000,0.000000,0.000000,0.000000,0.000000,0.000000,0.032776,13,0.000000,0.000000,0.000000,0.000000,0.000000,0.000000,0.000000,0.000000,0.000000,0.000000
135,946684902.753234,1,0.018393,0.017628,-9.879741,-0.061037,0.013428,-0.041505,0.004250,0.000000,0.299540,0.000000,0.000000,0.011320,0.000000,0.001869,0.000000,-0.014386,0.000000,0.000000,0.000000,0.000000,0.000000,0.000000,0.032776,13,0.000000,0.000000,0.000000,0.000000,0.000000,0.000000,0.000000,0.000000,0.000000,0.000000
136,946684902.758270,1,0.018393,0.017628,-9.879741,0.000000,-0.047609,0.019532,0.004250,0.000000,0.299540,0.000000,0.000000,0.011193,0.000000,0.001989,0.000000,-0.014287,0.000000,0.000000,0.000000,0.000000,0.000000,0.000000,0.033630,14,0.000000,0.000000,0.000000,0.000000,0.000000,0.000000,0.000000,0.000000,0.000000,0.000000
137,946684902.763275,1,0.018393,0.017628,-9.879741,0.061037,0.074465,-0.041505,0.004250,0.000000,0.299540,0.000000,0.000000,0.011681,0.000000,0.002415,0.000000,-0.014495,0.000000,0.000000,0.000000,0.000000,0.000000,0.000000,0.033630,14,0.000000,0.000000,0.000000,0.000000,0.000000,0.000000,0.000000,0.000000,0.000000,0.000000
138,946684902.768310,1,0.018393,0.017628,-9.879741,-0.061037,0.013428,0.080569,0.004250,0.000000,0.299540,0.000000,0.000000,0.011864,0.000000,0.002230,0.000000,-0.014090,0.000000,0.000000,0.000000,0.000000,0.000000,0.000000,0.033630,14,0.000000,0.000000,0.000000,0.000000,0.000000,0.000000,0.000000,0.000000,0.000000,0.000000
139,946684902.773315,1,0.018393,0.017628,-9.879741,0.000000,0.196539,-0.102542,0.004250,0.000000,0.299540,0.000000,0.000000,0.012964,0.000000,0.002354,0.000000,-0.014603,0.000000,0.000000,0.000000,0.000000,0.000000,0.000000,0.033630,14,0.000000,0.000000,0.000000,0.000000,0.000000,0.000000,0.000000,0.000000,0.000000,0.000000
140,946684902.778442,1,0.018393,0.017628,-9.879741,0.000000,0.135502,-0.102542,0.004250,0.000000,0.299540,0.000000,0.000000,0.013776,0.000000,0.002480,0.000000,-0.015128,0.000000,0.000000,0.000000,0.000000,0.000000,0.000000,0.033630,14,0.000000,0.000000,0.000000,0.000000,0.000000,0.000000,0.000000,0.000000,0.000000,0.000000
141,946684902.783386,1,0.018393,0.017628,-9.803100,-0.061037,-0.047609,-0.041505,0.004250,0.000000,0.299540,0.000000,0.000000,0.013660,0.000000,0.002307,0.000000,-0.015334,0.000000,0.000000,0.000000,0.000000,0.000000,0.000000,0.033630,14,0.000000,0.000000,0.000000,0.000000,0.000000,0.000000,0.000000,0.000000,0.000000,0.000000
142,946684902.788360,1,0.018393,0.017628,-9.803100,-0.061037,0.074465,0.019532,0.004250,0.000000,0.299540,0.000000,0.000000,0.014150,0.000000,0.002134,0.000000,-0.015237,0.000000,0.000000,0.000000,0.000000,0.000000,0.000000,0.030487,15,0.000000,0.000000,0.000000,0.000000,0.000000,0.000000,0.000000,0.000000,0.000000,0.000000
143,946684902.793365,1,0.018393,0.017628,-9.803100,-0.061037,-0.047609,0.019532,0.004250,0.000000,0.299540,0.000000,0.000000,0.014035,0.000000,0.001961,0.000000,-0.015139,0.000000,0.000000,0.000000,0.000000,0.000000,0.000000,0.030487,15,0.000000,0.000000,0.000000,0.000000,0.000000,0.000000,0.000000,0.000000,0.000000,0.000000
144,946684902.798400,1,0.018393,0.017628,-9.803100,-0.061037,0.013428,0.019532,0.004250,0.000000,0.299540,0.000000,0.000000,0.014226,0.000000,0.001788,0.000000,-0.015040,0.000000,0.000000,0.000000,0.000000,0.000000,0.000000,0.030487,15,0.000000,0.000000,0.000000,0.000000,0.000000,0.000000,0.000000,0.000000,0.000000,0.000000
145,946684902.803436,1,0.018393,0.017628,-9.803100,-0.061037,-0.108646,-0.041505,0.004250,0.000000,0.299540,0.000000,0.000000,0.013805,0.000000,0.001617,0.000000,-0.015249,0.000000,0.000000,0.000000,0.000000,0.000000,0.000000,0.030487,15,0.000000,0.000000,0.000000,0.000000,0.000000,0.000000,0.000000,0.000000,0.000000,0.000000
146,946684902.808441,1,0.018393,0.017628,-9.803100,0.000000,0.135502,0.080569,0.004250,0.000000,0.299540,0.000000,0.000000,0.014610,0.000000,0.001755,0.000000,-0.014846,0.000000,0.000000,0.000000,0.000000,0.000000,0.000000,0.030487,15,0.000000,0.000000,0.000000,0.000000,0.000000,0.000000,0.000000,0.000000,0.000000,0.000000
147,946684902.813446,1,0.018393,0.017628,-9.803100,0.000000,0.013428,-0.102542,0.004250,0.000000,0.299540,0.000000,0.000000,0.014805,0.000000,0.001895,0.000000,-0.015359,0.000000,0.000000,0.000000,0.000000,0.000000,0.000000,0.030487,15,0.000000,0.000000,0.000000,0.000000,0.000000,0.000000,0.000000,0.000000,0.000000,0.000000
148,946684902.818603,1,0.018393,0.017628,-9.803100,0.061037,0.135502,0.019532,0.000000,0.000000,0.299540,0.000000,0.000000,0.015633,0.000000,0.002351,0.000000,-0.015259,0.000000,0.000000,0.000000,0.000000,0.000000,0.000000,0.030487,15,0.000000,0.000000,0.000000,0.000000,0.000000,0.000000,0.000000,0.000000,0.000000,0.000000
149,946684902.823516,1,0.018393,0.017628,-9.803100,0.061037,-0.047609,0.019532,0.000000,0.000000,0.299540,0.000000,0.000000,0.015529,0.000000,0.002793,0.000000,-0.015163,0.000000,0.000000,0.000000,0.000000,0.000000,0.090966,0.032929,16,0.000000,0.000000,0.000000,0.000000,0.000000,0.000000,0.000000,0.000000,0.000000,0.000000
150,946684902.828491,1,0.018393,0.017628,-9.803100,-0.061037,0.013428,0.019532,0.000000,0.000000,0.299540,0.000000,0.000000,0.015728,0.000000,0.002634,0.000000,-0.015066,0.000000,0.000000,0.000000,0.000000,0.000000,0.090966,0.032929,16,0.000000,0.000000,0.000000,0.000000,0.000000,0.000000,0.000000,0.000000,0.000000,0.000000
151,946684902.833496,1,0.018393,0.017628,-9.803100,0.061037,0.135502,-0.041505,0.000000,0.000000,0.299540,0.000000,0.000000,0.016539,0.000000,0.003086,0.000000,-0.015273,0.000000,0.000000,0.000000,0.000000,0.000000,0.090966,0.032929,16,0.000000,0.000000,0.000000,0.000000,0.000000,0.000000,0.000000,0.000000,0.000000,0.000000
152,946684902.838531,1,0.018393,0.017628,-9.803100,0.061037,-0.047609,-0.041505,0.000000,0.000000,0.299540,0.000000,0.000000,0.016434,0.000000,0.003540,0.000000,-0.015482,0.000000,0.000000,0.000000,0.000000,0.000000,0.090966,0.032929,16,0.000000,0.000000,0.000000,0.000000,0.000000,0.000000,0.000000,0.000000,0.000000,0.000000
153,946684902.843536,1,0.018393,0.017628,-9.803100,-0.122074,0.074465,-0.102542,0.000000,0.000000,0.299540,0.000000,0.000000,0.016942,0.000000,0.003079,0.000000,-0.015995,0.000000,0.000000,0.000000,0.000000,0.000000,0.090966,0.032929,16,0.000000,0.000000,0.000000,0.000000,0.000000,0.000000,0.000000,0.000000,0.000000,0.000000
154,946684902.848571,1,0.018393,0.017628,-9.803100,0.000000,0.135502,0.080569,0.000000,0.000000,0.299540,0.000000,0.000000,0.017761,0.000000,0.003230,0.000000,-0.015590,0.000000,0.000000,0.000000,0.000000,0.000000,0.090966,0.032929,16,0.000000,0.000000,0.000000,0.000000,0.000000,0.000000,0.000000,0.000000,0.000000,0.000000
155,946684902.853576,1,0.018393,0.017628,-9.803100,-0.061037,0.074465,0.019532,0.000000,0.000000,0.299540,0.000000,0.000000,0.018271,0.000000,0.003078,0.000000,-0.015492,0.000000,0.000000,0.000000,0.000000,0.000000,0.000000,0.031128,17,0.000000,0.000000,0.000000,0.000000,0.000000,0.000000,0.000000,0.000000,0.000000,0.000000
156,946684902.858703,1,-0.058248,0.017628,-9.803100,0.061037,0.013428,0.019532,-0.004250,0.000000,0.299200,0.000000,0.000000,0.017852,0.000000,0.003547,0.000000,-0.015392,0.000000,0.000000,0.000000,0.000000,0.000000,0.000000,0.031128,17,0.000000,0.000000,0.000000,0.000000,0.000000,0.000000,0.000000,0.000000,0.000000,0.000000
157,946684902.863647,1,-0.058248,0.017628,-9.803100,0.000000,0.013428,0.019532,-0.004250,0.000000,0.299200,0.000000,0.000000,0.017424,0.000000,0.003703,0.000000,-0.015295,0.000000,0.000000,0.000000,0.000000,0.000000,0.000000,0.031128,17,0.000000,0.000000,0.000000,0.000000,0.000000,0.000000,0.000000,0.000000,0.000000,0.000000
158,946684902.868774,1,0.018393,0.017628,-9.803100,0.061037,-0.169683,-0.102542,-0.004250,0.000000,0.299200,0.000000,0.000000,0.016695,0.000000,0.004175,0.000000,-0.015821,0.000000,0.000000,0.000000,0.000000,0.000000,0.000000,0.031128,17,0.000000,0.000000,0.000000,0.000000,0.000000,0.000000,0.000000,0.000000,0.000000,0.000000
159,946684902.873657,1,0.018393,0.017628,-9.803100,0.061037,0.074465,-0.102542,-0.004250,0.000000,0.299200,0.000000,0.000000,0.017200,0.000000,0.004632,0.000000,-0.016322,0.000000,0.000000,0.000000,0.000000,0.000000,0.000000,0.031128,17,0.000000,0.000000,0.000000,0.000000,0.000000,0.000000,0.000000,0.000000,0.000000,0.000000
160,946684902.878692,1,0.018393,0.017628,-9.803100,0.061037,-0.108646,0.019532,-0.004250,0.000000,0.299200,0.000000,0.000000,0.016797,0.000000,0.005100,0.000000,-0.016223,0.000000,0.000000,0.000000,0.000000,0.000000,0.000000,0.031128,17,0.000000,0.000000,0.000000,0.000000,0.000000,0.000000,0.000000,0.000000,0.000000,0.000000
161,946684902.883666,1,0.018393,0.017628,-9.803100,0.122074,0.013428,-0.163579,-0.004250,0.000000,0.299200,0.000000,0.000000,0.017010,0.000000,0.005869,0.000000,-0.017037,0.000000,0.000000,0.000000,0.000000,0.000000,0.000000,0.032257,18,0.000000,0.000000,0.000000,0.000000,0.000000,0.000000,0.000000,0.000000,0.000000,0.000000
162,946684902.888702,1,0.018393,0.017628,-9.803100,0.000000,-0.169683,0.019532,-0.004250,0.000000,0.299200,0.000000,0.000000,0.016304,0.000000,0.006033,0.000000,-0.016939,0.000000,0.000000,0.000000,0.000000,0.000000,0.000000,0.032257,18,0.000000,0.000000,0.000000,0.000000,0.000000,0.000000,0.000000,0.000000,0.000000,0.000000
163,946684902.893707,1,0.018393,0.017628,-9.803100,0.000000,-0.047609,-0.041505,-0.004250,0.000000,0.299200,0.000000,0.000000,0.016217,0.000000,0.006198,0.000000,-0.017146,0.000000,0.000000,0.000000,0.000000,0.000000,0.000000,0.032257,18,0.000000,0.000000,0.000000,0.000000,0.000000,0.000000,0.000000,0.000000,0.000000,0.000000
164,946684902.898834,1,0.018393,0.017628,-9.803100,-0.061037,-0.047609,0.141606,0.000000,0.000000,0.299540,0.000000,0.000000,0.016126,0.000000,0.006053,0.000000,-0.016420,0.000000,0.000000,0.000000,0.000000,0.000000,0.000000,0.032257,18,0.000000,0.000000,0.000000,0.000000,0.000000,0.000000,0.000000,0.000000,0.000000,0.000000
165,946684902.903778,1,0.018393,0.017628,-9.803100,-0.061037,0.013428,0.019532,0.000000,0.000000,0.299540,0.000000,0.000000,0.016347,0.000000,0.005921,0.000000,-0.016324,0.000000,0.000000,0.000000,0.000000,0.000000,0.000000,0.032257,18,0.000000,0.000000,0.000000,0.000000,0.000000,0.000000,0.000000,0.000000,0.000000,0.000000
166,946684902.908782,1,0.018393,0.017628,-9.803100,0.000000,0.074465,-0.041505,0.000000,0.000000,0.299540,0.000000,0.000000,0.016875,0.000000,0.006093,0.000000,-0.016532,0.000000,0.000000,0.000000,0.000000,0.000000,0.000000,0.032257,18,0.000000,0.000000,0.000000,0.000000,0.000000,0.000000,0.000000,0.000000,0.000000,0.000000
167,946684902.913787,1,0.018393,-0.059012,-9.803100,-0.122074,-0.047609,0.019532,0.000000,0.000000,0.299540,0.000000,0.000000,0.016795,0.000000,0.004953,0.000000,-0.016434,0.000000,0.000000,0.000000,0.000000,0.000000,0.000000,0.032257,18,0.000000,0.000000,0.000000,0.000000,0.000000,0.000000,0.000000,0.000000,0.000000,0.000000
168,946684902.918823,1,-0.058248,-0.059012,-9.803100,0.000000,-0.047609,-0.102542,0.000000,0.000000,0.299540,0.000000,0.000000,0.016003,0.000000,0.004416,0.000000,-0.016950,0.000000,0.000000,0.000000,0.000000,0.000000,0.000000,0.033355,19,0.000000,0.000000,0.000000,0.000000,0.000000,0.000000,0.000000,0.000000,0.000000,0.000000
169,946684902.923797,1,-0.058248,-0.059012,-9.803100,0.000000,0.013428,-0.102542,0.000000,0.000000,0.299540,0.000000,0.000000,0.015511,0.000000,0.003873,0.000000,-0.017460,0.000000,0.000000,0.000000,0.000000,0.000000,0.000000,0.033355,19,0.000000,0.000000,0.000000,0.000000,0.000000,0.000000,0.000000,0.000000,0.000000,0.000000
170,946684902.928833,1,0.018393,-0.059012,-9.803100,-0.183111,0.013428,0.019532,0.000000,0.000000,0.299540,0.000000,0.000000,0.015740,0.000000,0.002402,0.000000,-0.017362,0.000000,0.000000,0.000000,0.000000,0.000000,0.000000,0.033355,19,0.000000,0.000000,0.000000,0.000000,0.000000,0.000000,0.000000,0.000000,0.000000,0.000000
171,946684902.933837,1,-0.058248,-0.059012,-9.803100,-0.061037,0.074465,0.019532,0.000000,0.000000,0.299540,0.000000,0.000000,0.015540,0.000000,0.001541,0.000000,-0.017264,0.000000,0.000000,0.000000,0.000000,0.000000,0.000000,0.033355,19,0.000000,0.000000,0.000000,0.000000,0.000000,0.000000,0.000000,0.000000,0.000000,0.000000
172,946684902.939025,1,0.018393,-0.059012,-9.803100,0.000000,0.074465,-0.102542,0.004250,0.000000,0.299540,0.000000,0.000000,0.016088,0.000000,0.000979,0.000000,-0.017796,0.000000,0.000000,0.000000,0.000000,0.000000,0.000000,0.033355,19,0.000000,0.000000,0.000000,0.000000,0.000000,0.000000,0.000000,0.000000,0.000000,0.000000
173,946684902.943908,1,0.018393,0.017628,-9.803100,0.122074,-0.108646,0.080569,0.004250,0.000000,0.299540,0.000000,0.000000,0.015721,0.000000,0.001753,0.000000,-0.017403,0.000000,0.000000,0.000000,0.000000,0.000000,0.000000,0.033355,19,0.000000,0.000000,0.000000,0.000000,0.000000,0.000000,0.000000,0.000000,0.000000,0.000000
174,946684902.948913,1,0.018393,0.017628,-9.803100,0.061037,0.074465,-0.041505,0.004250,0.000000,0.299540,0.000000,0.000000,0.016259,0.000000,0.002238,0.000000,-0.017611,0.000000,0.000000,0.000000,0.000000,0.000000,0.000000,0.032074,20,0.000000,0.000000,0.000000,0.000000,0.000000,0.000000,0.000000,0.000000,0.000000,0.000000
175,946684902.953918,1,0.018393,0.017628,-9.803100,0.061037,0.013428,0.080569,0.004250,0.000000,0.299540,0.000000,0.000000,0.016493,0.000000,0.002725,0.000000,-0.017207,0.000000,0.000000,0.000000,0.000000,0.000000,0.000000,0.032074,20,0.000000,0.000000,0.000000,0.000000,0.000000,0.000000,0.000000,0.000000,0.000000,0.000000
176,946684902.958953,1,0.018393,0.017628,-9.803100,-0.061037,0.074465,0.080569,0.004250,0.000000,0.299540,0.000000,0.000000,0.017037,0.000000,0.002602,0.000000,-0.016802,0.000000,0.000000,0.000000,0.000000,0.000000,0.000000,0.032074,20,0.000000,0.000000,0.000000,0.000000,0.000000,0.000000,0.000000,0.000000,0.000000,0.000000
177,946684902.963958,1,0.018393,0.017628,-9.879741,-0.061037,-0.108646,-0.041505,0.004250,0.000000,0.299540,0.000000,0.000000,0.016662,0.000000,0.002482,0.000000,-0.017009,0.000000,0.000000,0.000000,0.000000,0.000000,0.000000,0.032074,20,0.000000,0.000000,0.000000,0.000000,0.000000,0.000000,0.000000,0.000000,0.000000,0.000000
178,946684902.968994,1,0.018393,0.017628,-9.879741,0.000000,-0.169683,-0.102542,0.004250,0.000000,0.299540,0.000000,0.000000,0.015981,0.000000,0.002670,0.000000,-0.017526,0.000000,0.000000,0.000000,0.000000,0.000000,0.000000,0.032074,20,0.000000,0.000000,0.000000,0.000000,0.000000,0.000000,0.000000,0.000000,0.000000,0.000000
179,946684902.973999,1,0.018393,0.017628,-9.803100,0.000000,-0.047609,0.019532,0.004250,0.000000,0.299540,0.000000,0.000000,0.015919,0.000000,0.002861,0.000000,-0.017428,0.000000,0.000000,0.000000,0.000000,0.000000,0.000000,0.032074,20,0.000000,0.000000,0.000000,0.000000,0.000000,0.000000,0.000000,0.000000,0.000000,0.000000
180,946684902.979125,1,0.018393,0.017628,-9.879741,0.061037,0.013428,0.019532,-0.004250,0.000000,0.299200,0.000000,0.000000,0.016166,0.000000,0.003365,0.000000,-0.017328,0.000000,0.000000,0.000000,0.000000,0.000000,0.000000,0.032074,20,0.000000,0.000000,0.000000,0.000000,0.000000,0.000000,0.000000,0.000000,0.000000,0.000000
181,946684902.984039,1,0.018393,0.017628,-9.879741,0.000000,0.196539,-0.041505,-0.004250,0.000000,0.299200,0.000000,0.000000,0.017309,0.000000,0.003558,0.000000,-0.017532,0.000000,0.000000,0.000000,0.000000,0.000000,0.000000,0.031983,21,0.000000,0.000000,0.000000,0.000000,0.000000,0.000000,0.000000,0.000000,0.000000,0.000000
182,946684902.989044,1,0.018393,0.017628,-9.879741,0.061037,-0.047609,0.080569,-0.004250,0.000000,0.299200,0.000000,0.000000,0.017250,0.000000,0.004058,0.000000,-0.017129,0.000000,0.000000,0.000000,0.000000,0.000000,0.000000,0.031983,21,0.000000,0.000000,0.000000,0.000000,0.000000,0.000000,0.000000,0.000000,0.000000,0.000000
183,946684902.994049,1,0.018393,0.017628,-9.879741,0.000000,0.013428,-0.041505,-0.004250,0.000000,0.299200,0.000000,0.000000,0.017498,0.000000,0.004255,0.000000,-0.017336,0.000000,0.000000,0.000000,0.000000,0.000000,0.000000,0.031983,21,0.000000,0.000000,0.000000,0.000000,0.000000,0.000000,0.000000,0.000000,0.000000,0.000000
184,946684902.999114,10,0.018393,0.017628,-9.803100,0.000000,0.013428,-0.102542,-0.004250,0.400000,0.299200,0.000000,0.000000,0.017751,0.000000,0.004455,0.000000,-0.017856,0.000000,0.000000,0.000000,0.000000,0.000000,0.000000,0.031983,21,0.000000,0.000000,0.000000,0.000000,0.000000,0.000000,0.000000,0.000000,0.000000,0.000000
185,946684903.004089,11,0.018393,-0.059012,-9.803100,-0.061037,-0.047609,0.141606,-0.004250,0.400000,0.299200,0.100750,0.000000,0.017702,0.000000,0.003511,0.000000,-0.017151,0.100750,0.100750,0.100750,0.100750,0.000000,0.000000,0.031983,21,0.000000,0.000000,0.000000,0.000000,0.000000,0.000000,0.000000,0.000000,0.000000,0.000000
186,946684903.009155,11,0.018393,0.017628,-9.803100,-0.061037,0.013428,-0.041505,-0.004250,0.400000,0.299200,0.663029,0.000000,0.017959,0.000000,0.003406,0.000000,-0.017361,0.663186,0.663185,0.662932,0.662812,0.000000,0.000000,0.031983,21,0.000000,0.000000,0.000000,0.000000,0.000000,0.000000,-0.000157,-0.000030,0.000030,0.003029
187,946684903.014099,11,0.018393,0.017628,-9.803100,0.061037,0.074465,-0.041505,-0.004250,0.400000,0.299200,0.663034,0.000000,0.018517,0.000000,0.003913,0.000000,-0.017567,0.663192,0.663199,0.662937,0.662808,0.000000,0.000000,0.032898,22,0.000000,0.000000,0.000000,0.000000,0.000000,0.000000,-0.000162,-0.000034,0.000031,0.003034
188,946684903.019256,11,0.018393,0.017628,-9.803100,-0.183111,0.013428,0.080569,-0.004250,0.400000,0.299200,0.663039,0.000000,0.018779,0.000000,0.003179,0.000000,-0.017151,0.663205,0.663201,0.662933,0.662818,0.000000,0.000000,0.032898,22,0.000000,0.000000,0.000000,0.000000,0.000000,0.000000,-0.000164,-0.000028,0.000030,0.003039
189,946684903.024169,11,0.018393,0.017628,-9.803100,-0.061037,-0.047609,0.080569,-0.004250,0.400000,0.299200,0.663044,0.000000,0.018739,0.000000,0.003092,0.000000,-0.016755,0.663210,0.663206,0.662937,0.662824,0.000000,0.000000,0.032898,22,0.000000,0.000000,0.000000,0.000000,0.000000,0.000000,-0.000164,-0.000027,0.000029,0.003044
190,946684903.029754,11,0.018393,0.017628,-9.803100,0.061037,-0.047609,0.141606,-0.004250,0.400000,0.299200,0.663050,0.000000,0.018673,0.000000,0.003649,0.000000,-0.015964,0.663209,0.663217,0.662947,0.662827,0.000000,0.000000,0.032898,22,0.000000,0.000000,0.000000,0.000000,0.000000,0.000000,-0.000163,-0.000032,0.000028,0.003050
191,946684903.034179,11,0.018393,-0.059012,-9.803100,0.000000,-0.047609,0.019532,-0.004250,0.400000,0.299200,0.663054,0.000000,0.018659,0.000000,0.002970,0.000000,-0.015878,0.663219,0.663215,0.662945,0.662838,0.000000,0.000000,0.032898,22,0.000000,0.000000,0.000000,0.000000,0.000000,0.000000,-0.000163,-0.000026,0.000028,0.003054
192,946684903.039215,11,0.018393,0.017628,-9.803100,0.061037,0.013428,-0.041505,-0.004250,0.400000,0.299200,0.663059,0.000000,0.018928,0.000000,0.003493,0.000000,-0.016087,0.663222,0.663227,0.662953,0.662836,0.000000,0.000000,0.032898,22,0.000000,0.000000,0.000000,0.000000,0.000000,0.000000,-0.000165,-0.000030,0.000028,0.003059
193,946684903.044219,11,0.018393,0.017628,-9.803100,0.061037,-0.047609,-0.041505,-0.004250,0.400000,0.299200,0.663064,0.000000,0.018893,0.000000,0.004017,0.000000,-0.016295,0.663223,0.663236,0.662963,0.662836,0.000000,0.000000,0.032898,22,0.000000,0.000000,0.000000,0.000000,0.000000,0.000000,-0.000165,-0.000035,0.000028,0.003064
194,946684903.049255,11,0.018393,0.017628,-9.803100,0.000000,-0.108646,0.019532,-0.004250,0.400000,0.299200,0.663070,0.000000,0.018553,0.000000,0.004237,0.000000,-0.016196,0.663223,0.663240,0.662973,0.662842,0.047136,0.000000,0.031738,23,0.000237,0.000000,0.000000,0.000000,0.000000,0.000000,-0.000162,-0.000037,0.000028,0.003070
195,946684903.054229,11,0.018393,0.017628,-9.803100,0.061037,0.074465,0.019532,-0.004250,0.400000,0.299200,0.663075,0.000000,0.019131,0.000000,0.004762,0.000000,-0.016099,0.663228,0.663255,0.662977,0.662838,0.047136,0.000000,0.031738,23,0.000472,0.000000,0.000000,0.000000,0.000000,0.000000,-0.000167,-0.000042,0.000028,0.003075
196,946684903.059387,11,0.018393,0.017628,-9.803100,-0.183111,0.013428,0.080569,0.004250,0.400000,0.299540,0.663070,0.000000,0.019411,0.000000,0.004044,0.000000,-0.015684,0.663231,0.663247,0.662963,0.662838,0.047190,0.000000,0.031738,23,0.000715,0.000000,0.000000,0.000000,0.000000,0.000000,-0.000169,-0.000035,0.000027,0.003070
197,946684903.064331,11,0.018393,0.017628,-9.803100,0.000000,0.013428,-0.041505,0.004250,0.400000,0.299540,0.663074,0.000000,0.019688,0.000000,0.004272,0.000000,-0.015889,0.663237,0.663256,0.662968,0.662838,0.047190,0.000000,0.031738,23,0.000949,0.000000,0.000000,0.000000,0.000000,0.000000,-0.000172,-0.000037,0.000028,0.003074
198,946684903.069305,11,0.018393,0.017628,-9.803100,-0.061037,0.074465,0.019532,0.004250,0.400000,0.299540,0.663080,0.000000,0.020271,0.000000,0.004200,0.000000,-0.015792,0.663247,0.663266,0.662967,0.662838,0.047190,0.000000,0.031738,23,0.001183,0.000000,0.000000,0.000000,0.000000,0.000000,-0.000177,-0.000037,0.000028,0.003079
199,946684903.074340,11,0.018393,0.017628,-9.803100,0.122074,-0.047609,0.019532,0.004250,0.400000,0.299540,0.663085,0.000000,0.020247,0.000000,0.005046,0.000000,-0.015693,0.663245,0.663278,0.662979,0.662836,0.047190,0.000000,0.031738,23,0.001421,0.000000,0.000000,0.000000,0.000000,0.000000,-0.000177,-0.000044,0.000027,0.003085
200,946684903.079345,11,0.018393,0.017628,-9.803100,0.000000,0.074465,0.080569,0.004250,0.400000,0.299540,0.663090,0.000000,0.020836,0.000000,0.005281,0.000000,-0.015290,0.663252,0.663291,0.662980,0.662835,0.000000,0.000000,0.031464,24,0.001421,0.000000,0.000000,0.000000,0.000000,0.000000,-0.000182,-0.000046,0.000027,0.003090
201,946684903.084350,11,0.018393,0.017628,-9.803100,0.000000,0.013428,0.019532,0.004250,0.400000,0.299540,0.663095,0.000000,0.021122,0.000000,0.005517,0.000000,-0.015192,0.663257,0.663301,0.662985,0.662836,0.000000,0.000000,0.031464,24,0.001421,0.000000,0.000000,0.000000,0.000000,0.000000,-0.000184,-0.000048,0.000027,0.003095
202,946684903.089385,11,0.018393,0.017628,-9.803100,0.000000,0.013428,0.080569,0.004250,0.400000,0.299540,0.663100,0.000000,0.021410,0.000000,0.005756,0.000000,-0.014787,0.663262,0.663311,0.662989,0.662837,0.000000,0.000000,0.031464,24,0.001421,0.000000,0.000000,0.000000,0.000000,0.000000,-0.000187,-0.000050,0.000026,0.003100
203,946684903.094512,11,-0.058248,0.017628,-9.879741,0.061037,-0.047609,-0.041505,0.004250,0.400000,0.299540,0.663105,0.000000,0.020397,0.000000,0.006309,0.000000,-0.015000,0.663254,0.663312,0.663008,0.662846,0.000000,0.000000,0.031464,24,0.001421,0.000000,0.000000,0.000000,0.000000,0.000000,-0.000178,-0.000055,0.000026,0.003105
204,946684903.099548,11,0.018393,0.017628,-9.879741,0.061037,0.013428,-0.041505,0.004250,0.400000,0.299540,0.663110,0.000000,0.020686,0.000000,0.006856,0.000000,-0.015209,0.663257,0.663324,0.663016,0.662843,0.000000,0.000000,0.031464,24,0.001421,0.000000,0.000000,0.000000,0.000000,0.000000,-0.000181,-0.000060,0.000027,0.003110
205,946684903.104461,11,0.018393,0.017628,-9.879741,0.000000,0.074465,0.080569,0.004250,0.400000,0.299540,0.663115,0.000000,0.021273,0.000000,0.007098,0.000000,-0.014813,0.663264,0.663337,0.663017,0.662841,0.000000,0.000000,0.031464,24,0.001421,0.000000,0.000000,0.000000,0.000000,0.000000,-0.000186,-0.000062,0.000026,0.003115
206,946684903.109466,11,0.018393,0.017628,-9.879741,0.183111,0.074465,-0.041505,0.004250,0.400000,0.299540,0.663120,0.000000,0.021869,0.000000,0.008257,0.000000,-0.015020,0.663265,0.663357,0.663027,0.662831,0.000000,0.000000,0.031464,24,0.001421,0.000000,0.000000,0.000000,0.000000,0.000000,-0.000191,-0.000072,0.000026,0.003120
207,946684903.114440,11,0.018393,0.017628,-9.879741,0.000000,-0.047609,0.019532,0.004250,0.400000,0.299540,0.663125,0.000000,0.021858,0.000000,0.008502,0.000000,-0.014923,0.663267,0.663364,0.663034,0.662834,0.000000,0.000000,0.035888,25,0.001421,0.000000,0.000000,0.000000,0.000000,0.000000,-0.000191,-0.000074,0.000026,0.003125
208,946684903.119476,11,0.018393,-0.059012,-9.879741,0.000000,-0.047609,-0.102542,0.004250,0.400000,0.299540,0.663130,0.000000,0.021847,0.000000,0.007714,0.000000,-0.015440,0.663280,0.663361,0.663033,0.662845,0.000000,0.000000,0.035888,25,0.001421,0.000000,0.000000,0.000000,0.000000,0.000000,-0.000191,-0.000067,0.000027,0.003130
209,946684903.124481,11,0.018393,-0.059012,-9.879741,0.000000,0.013428,0.019532,0.004250,0.400000,0.299540,0.663135,0.000000,0.022144,0.000000,0.006917,0.000000,-0.015342,0.663295,0.663362,0.663029,0.662855,0.000000,0.000000,0.035888,25,0.001421,0.000000,0.000000,0.000000,0.000000,0.000000,-0.000193,-0.000060,0.000027,0.003135
210,946684903.129516,11,0.018393,0.017628,-9.803100,0.061037,0.013428,0.141606,0.004250,0.400000,0.299540,0.663140,0.000000,0.022446,0.000000,0.007474,0.000000,-0.014629,0.663296,0.663376,0.663035,0.662853,0.000000,0.000000,0.035888,25,0.001421,0.000000,0.000000,0.000000,0.000000,0.000000,-0.000196,-0.000065,0.000026,0.003140
211,946684903.134521,11,0.018393,-0.059012,-9.803100,0.000000,-0.047609,0.019532,0.004250,0.400000,0.299540,0.663145,0.000000,0.022445,0.000000,0.006654,0.000000,-0.014531,0.663308,0.663374,0.663033,0.662866,0.000000,0.000000,0.035888,25,0.001421,0.000000,0.000000,0.000000,0.000000,0.000000,-0.000196,-0.000058,0.000025,0.003145
212,946684903.139923,11,0.018393,0.017628,-9.803100,0.000000,-0.047609,0.141606,-0.004250,0.400000,0.299200,0.663161,0.000000,0.022429,0.000000,0.006908,0.000000,-0.013766,0.663320,0.663393,0.663049,0.662881,0.000000,0.000000,0.035888,25,0.001421,0.000000,0.000000,0.000000,0.000000,0.000000,-0.000196,-0.000060,0.000024,0.003161
213,946684903.144653,11,0.018393,0.017628,-9.803100,-0.061037,0.074465,0.080569,-0.004250,0.400000,0.299200,0.663165,0.000000,0.023020,0.000000,0.006873,0.000000,-0.013385,0.663330,0.663403,0.663048,0.662881,0.000000,0.000000,0.035888,25,0.001421,0.000000,0.000000,0.000000,0.000000,0.000000,-0.000201,-0.000060,0.000023,0.003165
214,946684903.149627,11,0.018393,0.017628,-9.803100,-0.061037,-0.108646,-0.041505,-0.004250,0.400000,0.299200,0.663170,0.000000,0.022723,0.000000,0.006828,0.000000,-0.013592,0.663333,0.663405,0.663055,0.662889,0.000000,0.000000,0.032624,26,0.001421,0.000000,0.000000,0.000000,0.000000,0.000000,-0.000198,-0.000060,0.000024,0.003170
215,946684903.154632,11,0.018393,0.017628,-9.803100,-0.061037,-0.108646,0.019532,-0.004250,0.400000,0.299200,0.663176,0.000000,0.022427,0.000000,0.006784,0.000000,-0.013494,0.663336,0.663407,0.663063,0.662897,0.000000,0.000000,0.032624,26,0.001421,0.000000,0.000000,0.000000,0.000000,0.000000,-0.000196,-0.000059,0.000024,0.003175
216,946684903.159667,11,0.018393,0.017628,-9.803100,0.000000,-0.108646,0.019532,-0.004250,0.400000,0.299200,0.663181,0.000000,0.022130,0.000000,0.007047,0.000000,-0.013395,0.663336,0.663412,0.663072,0.662903,0.000000,0.000000,0.032624,26,0.001421,0.000000,0.000000,0.000000,0.000000,0.000000,-0.000193,-0.000061,0.000023,0.003181
217,946684903.164642,11,-0.058248,0.017628,-9.803100,-0.061037,0.074465,0.019532,-0.004250,0.400000,0.299200,0.663186,0.000000,0.021625,0.000000,0.007010,0.000000,-0.013298,0.663336,0.663412,0.663081,0.662913,0.000000,0.000000,0.032624,26,0.001421,0.000000,0.000000,0.000000,0.000000,0.000000,-0.000189,-0.000061,0.000023,0.003186
218,946684903.169708,11,0.018393,0.017628,-9.803100,0.000000,-0.108646,-0.041505,-0.004250,0.400000,0.299200,0.663191,0.000000,0.021328,0.000000,0.007279,0.000000,-0.013509,0.663337,0.663417,0.663092,0.662917,0.000000,0.000000,0.032624,26,0.001421,0.000000,0.000000,0.000000,0.000000,0.000000,-0.000186,-0.000064,0.000024,0.003191
219,946684903.174682,11,0.018393,0.017628,-9.803100,0.000000,-0.108646,0.202643,-0.004250,0.400000,0.299200,0.663196,0.000000,0.021044,0.000000,0.007551,0.000000,-0.012501,0.663335,0.663423,0.663100,0.662924,0.000000,0.000000,0.029022,27,0.001421,0.000000,0.000000,0.000000,0.000000,0.000000,-0.000184,-0.000066,0.000022,0.003196
220,946684903.179779,11,0.018393,0.017628,-9.803100,0.000000,-0.047609,0.080569,-0.004250,0.400000,0.299200,0.663201,0.000000,0.021062,0.000000,0.007825,0.000000,-0.012090,0.663337,0.663432,0.663106,0.662928,0.000000,0.000000,0.029022,27,0.001421,0.000000,0.000000,0.000000,0.000000,0.000000,-0.000184,-0.000068,0.000021,0.003201
221,946684903.184722,11,0.018393,0.017628,-9.803100,0.000000,0.074465,0.080569,-0.004250,0.400000,0.299200,0.663206,0.000000,0.021690,0.000000,0.008100,0.000000,-0.011692,0.663345,0.663445,0.663108,0.662925,0.000000,0.000000,0.029022,27,0.001421,0.000000,0.000000,0.000000,0.000000,0.000000,-0.000189,-0.000071,0.000020,0.003206
222,946684903.189727,11,0.018393,0.017628,-9.803100,0.000000,0.013428,0.019532,-0.004250,0.400000,0.299200,0.663211,0.000000,0.022020,0.000000,0.008378,0.000000,-0.011594,0.663350,0.663456,0.663112,0.662925,0.000000,0.000000,0.029022,27,0.001421,0.000000,0.000000,0.000000,0.000000,0.000000,-0.000192,-0.000073,0.000020,0.003211
223,946684903.194732,11,0.018393,0.017628,-9.803100,-0.122074,0.135502,-0.041505,-0.004250,0.400000,0.299200,0.663216,0.000000,0.022961,0.000000,0.008050,0.000000,-0.011802,0.663367,0.663466,0.663106,0.662925,0.000000,0.000000,0.029022,27,0.001421,0.000000,0.000000,0.000000,0.000000,0.000000,-0.000200,-0.000070,0.000021,0.003216
224,946684903.199768,11,0.018393,0.017628,-9.803100,0.000000,0.074465,0.019532,-0.004250,0.400000,0.299200,0.663221,0.000000,0.023599,0.000000,0.008334,0.000000,-0.011703,0.663375,0.663479,0.663108,0.662922,0.000000,0.000000,0.029022,27,0.001421,0.000000,0.000000,0.000000,0.000000,0.000000,-0.000206,-0.000073,0.000020,0.003221
225,946684903.204772,11,0.018393,0.017628,-9.803100,0.061037,0.013428,0.141606,-0.004250,0.400000,0.299200,0.663226,0.000000,0.023932,0.000000,0.008926,0.000000,-0.010995,0.663376,0.663494,0.663114,0.662920,0.000000,0.000000,0.029022,27,0.001421,0.000000,0.000000,0.000000,0.000000,0.000000,-0.000209,-0.000078,0.000019,0.003226
226,946684903.209777,11,0.018393,0.017628,-9.803100,-0.061037,-0.047609,-0.102542,-0.004250,0.400000,0.299200,0.663231,0.000000,0.023962,0.000000,0.008909,0.000000,-0.011508,0.663383,0.663498,0.663120,0.662924,0.000000,0.000000,0.035126,28,0.001421,0.000000,0.000000,0.000000,0.000000,0.000000,-0.000209,-0.000078,0.000020,0.003231
227,946684903.214782,11,0.018393,0.017628,-9.879741,-0.061037,0.013428,-0.041505,-0.004250,0.400000,0.299200,0.663236,0.000000,0.024297,0.000000,0.008894,0.000000,-0.011716,0.663391,0.663505,0.663122,0.662926,0.000000,0.000000,0.035126,28,0.001421,0.000000,0.000000,0.000000,0.000000,0.000000,-0.000212,-0.000078,0.000020,0.003236
228,946684903.219940,11,0.018393,0.017628,-9.879741,0.000000,0.013428,0.019532,0.004250,0.400000,0.299540,0.663231,0.000000,0.024637,0.000000,0.009187,0.000000,-0.011615,0.663386,0.663506,0.663117,0.662916,0.000000,0.000000,0.035126,28,0.001421,0.000000,0.000000,0.000000,0.000000,0.000000,-0.000215,-0.000080,0.000020,0.003231
229,946684903.224853,11,0.018393,0.017628,-9.879741,0.000000,-0.047609,0.019532,0.004250,0.400000,0.299540,0.663236,0.000000,0.024674,0.000000,0.009481,0.000000,-0.011519,0.663389,0.663514,0.663123,0.662918,0.000000,0.000000,0.035126,28,0.001421,0.000000,0.000000,0.000000,0.000000,0.000000,-0.000215,-0.000083,0.000020,0.003236
230,946684903.229858,11,0.018393,0.017628,-9.879741,0.000000,-0.047609,0.080569,0.004250,0.400000,0.299540,0.663241,0.000000,0.024711,0.000000,0.009778,0.000000,-0.011116,0.663391,0.663523,0.663130,0.662921,0.000000,0.000000,0.035126,28,0.001421,0.000000,0.000000,0.000000,0.000000,0.000000,-0.000216,-0.000085,0.000019,0.003241
231,946684903.234863,11,0.018393,0.017628,-9.879741,0.000000,-0.047609,0.080569,0.004250,0.400000,0.299540,0.663246,0.000000,0.024750,0.000000,0.010077,0.000000,-0.010712,0.663393,0.663531,0.663137,0.662923,0.000000,0.000000,0.035126,28,0.001421,0.000000,0.000000,0.000000,0.000000,0.000000,-0.000216,-0.000088,0.000019,0.003246
232,946684903.239898,11,0.018393,0.017628,-9.879741,-0.061037,-0.047609,0.019532,0.004250,0.400000,0.299540,0.663251,0.000000,0.024790,0.000000,0.010072,0.000000,-0.010614,0.663398,0.663537,0.663141,0.662928,0.000000,0.000000,0.029235,29,0.001421,0.000000,0.000000,0.000000,0.000000,0.000000,-0.000216,-0.000088,0.000019,0.003251
233,946684903.244903,11,0.018393,0.017628,-9.879741,0.000000,-0.169683,0.019532,0.004250,0.400000,0.299540,0.663256,0.000000,0.024225,0.000000,0.010376,0.000000,-0.010516,0.663395,0.663540,0.663154,0.662936,0.000000,0.000000,0.029235,29,0.001421,0.000000,0.000000,0.000000,0.000000,0.000000,-0.000211,-0.000091,0.000018,0.003256
234,946684903.249938,11,0.018393,0.017628,-9.879741,-0.061037,-0.047609,0.019532,0.004250,0.400000,0.299540,0.663261,0.000000,0.024273,0.000000,0.010376,0.000000,-0.010418,0.663401,0.663545,0.663158,0.662941,0.000000,0.000000,0.029235,29,0.001421,0.000000,0.000000,0.000000,0.000000,0.000000,-0.000212,-0.000091,0.000018,0.003261
235,946684903.254913,11,0.018393,0.017628,-9.879741,-0.061037,0.013428,-0.163579,0.004250,0.400000,0.299540,0.663266,0.000000,0.024628,0.000000,0.010383,0.000000,-0.011232,0.663410,0.663552,0.663162,0.662941,0.000000,0.000000,0.029235,29,0.001421,0.000000,0.000000,0.000000,0.000000,0.000000,-0.000215,-0.000091,0.000020,0.003266
236,946684903.260070,11,0.018393,0.017628,-9.879741,-0.122074,0.013428,-0.041505,0.000001,0.400000,0.299200,0.663282,0.000000,0.024989,0.000000,0.010069,0.000000,-0.011446,0.663432,0.663568,0.663171,0.662956,0.000000,0.000000,0.029235,29,0.001421,0.000000,0.000000,0.000000,0.000000,0.000000,-0.000218,-0.000088,0.000020,0.003282
237,946684903.264984,11,0.018393,0.017628,-9.879741,-0.061037,0.013428,0.080569,0.000001,0.400000,0.299200,0.663287,0.000000,0.025347,0.000000,0.010086,0.000000,-0.011050,0.663439,0.663577,0.663173,0.662958,0.000000,0.000000,0.029235,29,0.001421,0.000000,0.000000,0.000000,0.000000,0.000000,-0.000221,-0.000088,0.000019,0.003287
238,946684903.269989,11,-0.058248,0.017628,-9.879741,-0.061037,-0.108646,-0.102542,0.000001,0.400000,0.299200,0.663292,0.000000,0.023778,0.000000,0.010101,0.000000,-0.011563,0.663431,0.663567,0.663193,0.662976,0.000000,0.000000,0.029235,29,0.001421,0.000000,0.000000,0.000000,0.000000,0.000000,-0.000207,-0.000088,0.000020,0.003292
239,946684903.274993,11,0.018393,0.017628,-9.879741,-0.122074,-0.047609,-0.102542,0.000001,0.400000,0.299200,0.663297,0.000000,0.023836,0.000000,0.009815,0.000000,-0.012076,0.663440,0.663569,0.663195,0.662982,0.000000,0.000000,0.032990,30,0.001421,0.000000,0.000000,0.000000,0.000000,0.000000,-0.000208,-0.000086,0.000021,0.003297
240,946684903.280029,11,0.018393,0.017628,-9.879741,-0.061037,0.135502,-0.041505,0.000001,0.400000,0.299200,0.663302,0.000000,0.024816,0.000000,0.009836,0.000000,-0.012285,0.663454,0.663583,0.663193,0.662978,0.000000,0.000000,0.032990,30,0.001421,0.000000,0.000000,0.000000,0.000000,0.000000,-0.000217,-0.000086,0.000021,0.003302
241,946684903.285034,11,-0.058248,0.017628,-9.803100,0.000000,0.013428,-0.041505,0.000001,0.400000,0.299200,0.663307,0.000000,0.023823,0.000000,0.010169,0.000000,-0.012493,0.663448,0.663582,0.663209,0.662988,0.000000,0.000000,0.032990,30,0.001421,0.000000,0.000000,0.000000,0.000000,0.000000,-0.000208,-0.000089,0.000022,0.003307
242,946684903.290069,11,-0.058248,-0.059012,-9.879741,0.061037,0.074465,0.019532,0.000001,0.400000,0.299200,0.663312,0.000000,0.023136,0.000000,0.009447,0.000000,-0.012395,0.663453,0.663575,0.663214,0.663006,0.000000,0.000000,0.032990,30,0.001421,0.000000,0.000000,0.000000,0.000000,0.000000,-0.000202,-0.000082,0.000022,0.003312
243,946684903.295043,11,0.018393,0.017628,-9.803100,0.000000,-0.108646,0.019532,0.000001,0.400000,0.299200,0.663317,0.000000,0.022898,0.000000,0.009781,0.000000,-0.012298,0.663453,0.663581,0.663224,0.663010,0.000000,0.000000,0.032990,30,0.001421,0.000000,0.000000,0.000000,0.000000,0.000000,-0.000200,-0.000085,0.000021,0.003317
244,946684903.300201,11,0.018393,0.017628,-9.803100,-0.061037,-0.108646,-0.041505,0.000000,0.400000,0.299540,0.663312,0.000000,0.022646,0.000000,0.009806,0.000000,-0.012512,0.663446,0.663573,0.663222,0.663007,0.000000,0.000000,0.032990,30,0.001421,0.000000,0.000000,0.000000,0.000000,0.000000,-0.000198,-0.000086,0.000022,0.003312
245,946684903.305114,11,0.018393,-0.059012,-9.803100,-0.061037,-0.047609,-0.041505,0.000000,0.400000,0.299540,0.663317,0.000000,0.022721,0.000000,0.008445,0.000000,-0.012716,0.663464,0.663567,0.663214,0.663023,0.000000,0.000000,0.033295,31,0.001421,0.000000,0.000000,0.000000,0.000000,0.000000,-0.000198,-0.000074,0.000022,0.003317
246,946684903.310119,11,-0.058248,-0.059012,-9.803100,-0.061037,0.013428,-0.041505,0.000000,0.400000,0.299540,0.663322,0.000000,0.021688,0.000000,0.007071,0.000000,-0.012923,0.663472,0.663550,0.663217,0.663048,0.000000,0.000000,0.033295,31,0.001421,0.000000,0.000000,0.000000,0.000000,0.000000,-0.000189,-0.000062,0.000023,0.003322
247,946684903.315124,11,0.018393,-0.059012,-9.803100,0.122074,0.135502,0.080569,0.000000,0.400000,0.299540,0.663327,0.000000,0.022676,0.000000,0.006602,0.000000,-0.012520,0.663489,0.663561,0.663208,0.663049,0.000000,0.000000,0.033295,31,0.001421,0.000000,0.000000,0.000000,0.000000,0.000000,-0.000198,-0.000058,0.000022,0.003327
248,946684903.320159,11,0.018393,-0.059012,-9.879741,0.061037,0.013428,-0.041505,0.000000,0.400000,0.299540,0.663332,0.000000,0.023053,0.000000,0.005829,0.000000,-0.012729,0.663504,0.663562,0.663204,0.663058,0.000000,0.000000,0.033295,31,0.001421,0.000000,0.000000,0.000000,0.000000,0.000000,-0.000201,-0.000051,0.000022,0.003332
249,946684903.325164,11,0.018393,0.017628,-9.803100,0.061037,0.013428,0.019532,0.000000,0.400000,0.299540,0.663337,0.000000,0.023433,0.000000,0.006477,0.000000,-0.012631,0.663507,0.663576,0.663211,0.663054,0.000000,0.000000,0.033295,31,0.001421,0.000000,0.000000,0.000000,0.000000,0.000000,-0.000204,-0.000057,0.000022,0.003337
250,946684903.330200,11,-0.058248,0.017628,-9.803100,0.000000,0.074465,-0.041505,0.000000,0.400000,0.299540,0.663342,0.000000,0.022671,0.000000,0.006822,0.000000,-0.012840,0.663503,0.663577,0.663226,0.663062,0.000000,0.000000,0.033295,31,0.001421,0.000000,0.000000,0.000000,0.000000,0.000000,-0.000198,-0.000060,0.000022,0.003342
251,946684903.335205,11,-0.058248,0.017628,-9.803100,0.000000,0.074465,-0.041505,0.000000,0.400000,0.299540,0.663347,0.000000,0.021895,0.000000,0.007169,0.000000,-0.013048,0.663498,0.663578,0.663241,0.663071,0.000000,0.000000,0.033295,31,0.001421,0.000000,0.000000,0.000000,0.000000,0.000000,-0.000191,-0.000063,0.000023,0.003347
252,946684903.340332,11,-0.058248,0.017628,-9.803100,0.000000,-0.047609,0.019532,0.000001,0.400000,0.299200,0.663362,0.000000,0.020495,0.000000,0.007519,0.000000,-0.012948,0.663498,0.663584,0.663272,0.663095,0.000000,0.000000,0.032989,32,0.001421,0.000000,0.000000,0.000000,0.000000,0.000000,-0.000179,-0.000066,0.000023,0.003362
253,946684903.345275,11,-0.058248,0.017628,-9.803100,-0.061037,0.074465,-0.102542,0.000001,0.400000,0.299200,0.663367,0.000000,0.019696,0.000000,0.007570,0.000000,-0.013455,0.663497,0.663582,0.663285,0.663106,0.000000,0.000000,0.032989,32,0.001421,0.000000,0.000000,0.000000,0.000000,0.000000,-0.000172,-0.000066,0.000023,0.003367
254,946684903.350250,11,-0.058248,0.017628,-9.803100,0.000000,-0.047609,-0.163579,0.000001,0.400000,0.299200,0.663372,0.000000,0.018283,0.000000,0.007925,0.000000,-0.014269,0.663488,0.663576,0.663307,0.663119,0.000000,0.000000,0.032989,32,0.001421,0.000000,0.000000,0.000000,0.000000,0.000000,-0.000160,-0.000069,0.000025,0.003372
255,946684903.355255,11,0.018393,0.017628,-9.803100,-0.061037,-0.047609,0.019532,0.000001,0.400000,0.299200,0.663377,0.000000,0.018364,0.000000,0.007977,0.000000,-0.014171,0.663493,0.663583,0.663312,0.663123,0.000000,0.000000,0.032989,32,0.001421,0.000000,0.000000,0.000000,0.000000,0.000000,-0.000160,-0.000070,0.000025,0.003377
256,946684903.360290,11,0.018393,0.017628,-9.803100,0.000000,0.013428,-0.041505,0.000001,0.400000,0.299200,0.663383,0.000000,0.018753,0.000000,0.008338,0.000000,-0.014380,0.663499,0.663594,0.663317,0.663121,0.000000,0.000000,0.032989,32,0.001421,0.000000,0.000000,0.000000,0.000000,0.000000,-0.000164,-0.000073,0.000025,0.003383
257,946684903.365295,11,0.018393,0.017628,-9.803100,0.061037,0.013428,0.019532,0.000001,0.400000,0.299200,0.663388,0.000000,0.019144,0.000000,0.009005,0.000000,-0.014282,0.663501,0.663608,0.663324,0.663117,0.000000,0.000000,0.032989,32,0.001421,0.000000,0.000000,0.000000,0.000000,0.000000,-0.000167,-0.000079,0.000025,0.003388
258,946684903.370330,11,0.018393,0.017628,-9.803100,-0.061037,-0.047609,0.141606,0.000001,0.400000,0.299200,0.663393,0.000000,0.019230,0.000000,0.009063,0.000000,-0.013569,0.663505,0.663616,0.663328,0.663122,0.000000,0.000000,0.031983,33,0.001421,0.000000,0.000000,0.000000,0.000000,0.000000,-0.000168,-0.000079,0.000024,0.003393
259,946684903.375335,11,0.018393,0.017628,-9.803100,0.061037,0.013428,-0.041505,0.000001,0.400000,0.299200,0.663398,0.000000,0.019625,0.000000,0.009735,0.000000,-0.013777,0.663508,0.663630,0.663335,0.663117,0.000000,0.000000,0.031983,33,0.001421,0.000000,0.000000,0.000000,0.000000,0.000000,-0.000171,-0.000085,0.000024,0.003398
260,946684903.380462,11,-0.058248,0.017628,-9.803100,0.122074,-0.169683,-0.041505,-0.004250,0.400000,0.299200,0.663403,0.000000,0.017535,0.000000,0.010728,0.000000,-0.013990,0.663487,0.663625,0.663368,0.663132,0.000000,0.000000,0.031983,33,0.001421,0.000000,0.000000,0.000000,0.000000,0.000000,-0.000153,-0.000094,0.000024,0.003403
261,946684903.385894,11,0.018393,0.017628,-9.803100,0.061037,0.013428,0.141606,-0.004250,0.400000,0.299200,0.663408,0.000000,0.017944,0.000000,0.011430,0.000000,-0.013220,0.663488,0.663642,0.663375,0.663129,0.000000,0.000000,0.031983,33,0.001421,0.000000,0.000000,0.000000,0.000000,0.000000,-0.000157,-0.000100,0.000023,0.003408
262,946684903.390411,11,0.018393,0.017628,-9.803100,0.000000,0.013428,-0.041505,-0.004250,0.400000,0.299200,0.663413,0.000000,0.018339,0.000000,0.011795,0.000000,-0.013408,0.663493,0.663652,0.663379,0.663126,0.000000,0.000000,0.031983,33,0.001421,0.000000,0.000000,0.000000,0.000000,0.000000,-0.000160,-0.000103,0.000023,0.003413
263,946684903.395416,11,-0.058248,0.017628,-9.803100,0.000000,-0.047609,-0.102542,-0.004250,0.400000,0.299200,0.663418,0.000000,0.016855,0.000000,0.012166,0.000000,-0.013921,0.663483,0.663647,0.663401,0.663140,0.000000,0.000000,0.031983,33,0.001421,0.000000,0.000000,0.000000,0.000000,0.000000,-0.000147,-0.000106,0.000024,0.003418
264,946684903.400451,11,-0.058248,0.017628,-9.803100,0.000000,0.074465,0.141606,-0.004250,0.400000,0.299200,0.663423,0.000000,0.015974,0.000000,0.012540,0.000000,-0.013208,0.663476,0.663649,0.663416,0.663151,0.000000,0.000000,0.031983,33,0.001421,0.000000,0.000000,0.000000,0.000000,0.000000,-0.000139,-0.000109,0.000023,0.003423
265,946684903.405426,11,-0.058248,0.017628,-9.803100,0.000000,0.135502,0.080569,-0.004250,0.400000,0.299200,0.663428,0.000000,0.015381,0.000000,0.012914,0.000000,-0.012807,0.663472,0.663653,0.663429,0.663159,0.000000,0.000000,0.032562,34,0.001421,0.000000,0.000000,0.000000,0.000000,0.000000,-0.000134,-0.000113,0.000022,0.003428
266,946684903.410461,11,-0.058248,0.017628,-9.803100,0.061037,-0.047609,0.019532,-0.004250,0.400000,0.299200,0.663433,0.000000,0.013867,0.000000,0.013598,0.000000,-0.012709,0.663458,0.663651,0.663453,0.663171,0.000000,0.000000,0.032562,34,0.001421,0.000000,0.000000,0.000000,0.000000,0.000000,-0.000121,-0.000119,0.000022,0.003433
267,946684903.415496,11,-0.058248,0.017628,-9.803100,-0.061037,0.013428,0.019532,-0.004250,0.400000,0.299200,0.663438,0.000000,0.012651,0.000000,0.013670,0.000000,-0.012611,0.663451,0.663646,0.663469,0.663187,0.000000,0.000000,0.032562,34,0.001421,0.000000,0.000000,0.000000,0.000000,0.000000,-0.000110,-0.000119,0.000022,0.003438
268,946684903.420593,11,-0.058248,0.017628,-9.803100,0.000000,0.135502,0.141606,0.004250,0.400000,0.299540,0.663433,0.000000,0.012047,0.000000,0.014052,0.000000,-0.011889,0.663436,0.663640,0.663471,0.663185,0.000000,0.000000,0.032562,34,0.001421,0.000000,0.000000,0.000000,0.000000,0.000000,-0.000105,-0.000123,0.000021,0.003433
269,946684903.425537,11,0.018393,0.017628,-9.803100,0.061037,0.013428,0.019532,0.004250,0.400000,0.299540,0.663438,0.000000,0.012456,0.000000,0.014736,0.000000,-0.011792,0.663439,0.663655,0.663478,0.663180,0.000000,0.000000,0.032562,34,0.001421,0.000000,0.000000,0.000000,0.000000,0.000000,-0.000109,-0.000129,0.000021,0.003438
270,946684903.430541,11,-0.058248,0.017628,-9.803100,0.000000,0.135502,0.019532,0.004250,0.400000,0.299540,0.663443,0.000000,0.011820,0.000000,0.015119,0.000000,-0.011695,0.663435,0.663658,0.663492,0.663188,0.000000,0.000000,0.032562,34,0.001421,0.000000,0.000000,0.000000,0.000000,0.000000,-0.000103,-0.000132,0.000020,0.003443
271,946684903.435516,11,-0.058248,0.017628,-9.803100,0.000000,0.074465,0.080569,0.004250,0.400000,0.299540,0.663448,0.000000,0.010868,0.000000,0.015505,0.000000,-0.011294,0.663427,0.663658,0.663508,0.663198,0.000000,0.000000,0.031860,35,0.001421,0.000000,0.000000,0.000000,0.000000,0.000000,-0.000095,-0.000135,0.000020,0.003448
272,946684903.440582,11,-0.058248,0.017628,-9.803100,0.000000,-0.169683,0.019532,0.004250,0.400000,0.299540,0.663453,0.000000,0.008679,0.000000,0.015893,0.000000,-0.011195,0.663410,0.663648,0.663536,0.663219,0.000000,0.000000,0.031860,35,0.001421,0.000000,0.000000,0.000000,0.000000,0.000000,-0.000076,-0.000139,0.000020,0.003453
273,946684903.445556,11,-0.058248,0.017628,-9.803100,-0.122074,-0.047609,-0.041505,0.004250,0.400000,0.299540,0.663458,0.000000,0.007107,0.000000,0.015677,0.000000,-0.011401,0.663403,0.663637,0.663553,0.663239,0.000000,0.000000,0.031860,35,0.001421,0.000000,0.000000,0.000000,0.000000,0.000000,-0.000062,-0.000137,0.000020,0.003458
274,946684903.450622,11,-0.058248,0.017628,-9.803100,-0.061037,0.074465,0.019532,0.004250,0.400000,0.299540,0.663463,0.000000,0.006139,0.000000,0.015763,0.000000,-0.011302,0.663399,0.663635,0.663567,0.663252,0.000000,0.000000,0.031860,35,0.001421,0.000000,0.000000,0.000000,0.000000,0.000000,-0.000054,-0.000138,0.000020,0.003463
275,946684903.455596,11,-0.058248,0.017628,-9.879741,0.000000,0.135502,0.019532,0.004250,0.400000,0.299540,0.663468,0.000000,0.005468,0.000000,0.016156,0.000000,-0.011205,0.663395,0.663637,0.663581,0.663260,0.000000,0.000000,0.031860,35,0.001421,0.000000,0.000000,0.000000,0.000000,0.000000,-0.000048,-0.000141,0.000020,0.003468
276,946684903.460754,11,-0.058248,0.017628,-9.803100,0.000000,0.196539,0.080569,0.004250,0.400000,0.299540,0.663473,0.000000,0.005112,0.000000,0.016557,0.000000,-0.010790,0.663392,0.663644,0.663592,0.663266,0.000000,0.000000,0.031860,35,0.001421,0.000000,0.000000,0.000000,0.000000,0.000000,-0.000045,-0.000144,0.000019,0.003473
277,946684903.465667,11,-0.058248,0.017628,-9.803100,0.122074,0.013428,-0.102542,0.004250,0.400000,0.299540,0.663478,0.000000,0.003803,0.000000,0.017553,0.000000,-0.011293,0.663378,0.663645,0.663618,0.663272,0.000000,0.000000,0.031860,35,0.001421,0.000000,0.000000,0.000000,0.000000,0.000000,-0.000033,-0.000153,0.000020,0.003478
278,946684903.470672,11,-0.058248,0.017628,-9.879741,0.061037,0.013428,0.019532,0.004250,0.400000,0.299540,0.663483,0.000000,0.002497,0.000000,0.018253,0.000000,-0.011196,0.663365,0.663645,0.663640,0.663283,0.000000,0.000000,0.033142,36,0.001421,0.000000,0.000000,0.000000,0.000000,0.000000,-0.000022,-0.000159,0.000020,0.003483
279,946684903.475677,11,0.018393,0.017628,-9.879741,0.000000,0.074465,-0.041505,0.004250,0.400000,0.299540,0.663488,0.000000,0.003222,0.000000,0.018650,0.000000,-0.011403,0.663374,0.663659,0.663643,0.663278,0.000000,0.000000,0.033142,36,0.001421,0.000000,0.000000,0.000000,0.000000,0.000000,-0.000028,-0.000163,0.000020,0.003488
280,946684903.480712,11,0.018393,0.017628,-9.803100,0.000000,0.013428,-0.041505,0.004250,0.400000,0.299540,0.663494,0.000000,0.003647,0.000000,0.019052,0.000000,-0.011612,0.663379,0.663671,0.663648,0.663275,0.000000,0.000000,0.033142,36,0.001421,0.000000,0.000000,0.000000,0.000000,0.000000,-0.000032,-0.000166,0.000020,0.003493
281,946684903.485717,11,0.018393,0.017628,-9.803100,0.061037,0.013428,-0.041505,0.004250,0.400000,0.299540,0.663499,0.000000,0.004074,0.000000,0.019759,0.000000,-0.011820,0.663382,0.663686,0.663656,0.663270,0.000000,0.000000,0.033142,36,0.001421,0.000000,0.000000,0.000000,0.000000,0.000000,-0.000036,-0.000172,0.000021,0.003498
282,946684903.490753,11,0.018393,0.017628,-9.803100,0.000000,-0.047609,0.019532,0.004250,0.400000,0.299540,0.663504,0.000000,0.004197,0.000000,0.020163,0.000000,-0.011722,0.663385,0.663696,0.663663,0.663271,0.000000,0.000000,0.033142,36,0.001421,0.000000,0.000000,0.000000,0.000000,0.000000,-0.000037,-0.000176,0.000020,0.003504
283,946684903.495758,11,0.018393,0.017628,-9.803100,0.000000,-0.047609,-0.102542,0.004250,0.400000,0.299540,0.663509,0.000000,0.004325,0.000000,0.020568,0.000000,-0.012235,0.663388,0.663704,0.663672,0.663270,0.000000,0.000000,0.033142,36,0.001421,0.000000,0.000000,0.000000,0.000000,0.000000,-0.000038,-0.000179,0.000021,0.003509
284,946684903.500885,11,0.018393,0.017628,-9.803100,0.183111,0.318613,-0.102542,0.000000,0.400000,0.299540,0.663514,0.000000,0.006320,0.000000,0.021912,0.000000,-0.012761,0.663400,0.663738,0.663672,0.663245,0.000000,0.000000,0.031311,37,0.001421,0.000000,0.000000,0.000000,0.000000,0.000000,-0.000055,-0.000191,0.000022,0.003514
285,946684903.505798,11,0.018393,0.017628,-9.803100,0.793481,-0.413831,0.935087,0.000000,0.400000,0.299540,0.663519,0.000000,0.004661,0.000000,0.026197,0.000000,-0.008167,0.663345,0.663774,0.663721,0.663235,0.000000,0.000000,0.031311,37,0.001421,0.000000,0.000000,0.000000,0.000000,0.000000,-0.000041,-0.000229,0.000014,0.003519
286,946684903.510803,11,0.095034,0.017628,-9.803100,-0.122074,-1.756645,0.813013,0.000000,0.400000,0.299540,0.663524,0.000000,-0.001901,0.000000,0.025979,0.000000,-0.004097,0.663288,0.663727,0.663774,0.663306,0.000000,0.000000,0.031311,37,0.001421,0.000000,0.000000,0.000000,0.000000,0.000000,0.000017,-0.000227,0.000007,0.003524
287,946684903.515808,11,0.018393,-0.059012,-9.803100,-0.610370,1.356243,-2.299875,0.000000,0.400000,0.299540,0.663529,0.000000,0.005273,0.000000,0.021502,0.000000,-0.015608,0.663414,0.663735,0.663698,0.663268,0.000000,0.000000,0.031311,37,0.001421,0.000000,0.000000,0.000000,0.000000,0.000000,-0.000046,-0.000188,0.000027,0.003529
288,946684903.520843,11,0.018393,0.017628,-9.803100,-0.183111,0.196539,-0.896024,0.000000,0.400000,0.299540,0.663534,0.000000,0.006647,0.000000,0.020992,0.000000,-0.020120,0.663444,0.663740,0.663694,0.663258,0.000000,0.000000,0.031311,37,0.001421,0.000000,0.000000,0.000000,0.000000,0.000000,-0.000058,-0.000183,0.000035,0.003534
289,946684903.525848,11,0.018393,0.017628,-9.803100,0.549333,0.074465,1.728568,0.000000,0.400000,0.299540,0.663539,0.000000,0.007404,0.000000,0.024143,0.000000,-0.011468,0.663413,0.663794,0.663705,0.663243,0.000000,0.000000,0.031311,37,0.001421,0.000000,0.000000,0.000000,0.000000,0.000000,-0.000065,-0.000211,0.000020,0.003539
290,946684903.530883,11,0.018393,0.017628,-9.803100,0.793481,0.990020,-0.468764,0.000000,0.400000,0.299540,0.663544,0.000000,0.012755,0.000000,0.028526,0.000000,-0.013829,0.663430,0.663880,0.663706,0.663159,0.000000,0.000000,0.031311,37,0.001421,0.000000,0.000000,0.000000,0.000000,0.000000,-0.000111,-0.000249,0.000024,0.003544
291,946684903.535858,11,0.018393,-0.059012,-9.879741,-0.122074,-0.352794,-2.605060,0.000000,0.400000,0.299540,0.663549,0.000000,0.011373,0.000000,0.026451,0.000000,-0.026789,0.663464,0.663832,0.663727,0.663172,-0.045065,0.000000,0.033234,38,0.001197,0.000000,0.000000,0.000000,0.000000,0.000000,-0.000099,-0.000231,0.000047,0.003549
292,946684903.541015,11,0.018393,-0.059012,-9.803100,0.610370,0.867946,4.902493,-0.004250,0.400000,0.299200,0.663564,0.000000,0.016208,0.000000,0.028101,0.000000,-0.001507,0.663463,0.663948,0.663671,0.663175,-0.045014,0.000000,0.033234,38,0.000965,0.000000,0.000000,0.000000,0.000000,0.000000,-0.000141,-0.000245,0.000003,0.003564
293,946684903.545928,11,-0.058248,-0.135653,-9.803100,-0.976592,1.417280,1.972716,-0.004250,0.400000,0.299200,0.663569,0.000000,0.021614,0.000000,0.019925,0.000000,0.008185,0.663570,0.663946,0.663540,0.663221,-0.045014,0.000000,0.033234,38,0.000743,0.000000,0.000000,0.000000,0.000000,0.000000,-0.000189,-0.000174,-0.000014,0.003569
294,946684903.550964,11,0.018393,0.017628,-9.726460,-0.366222,-3.404645,-2.910245,-0.004250,0.400000,0.299200,0.663574,0.000000,0.004879,0.000000,0.018497,0.000000,-0.006471,0.663467,0.663767,0.663704,0.663359,-0.045014,0.000000,0.033234,38,0.000517,0.000000,0.000000,0.000000,0.000000,0.000000,-0.000043,-0.000161,0.000011,0.003574
295,946684903.555938,11,0.018393,0.094269,-9.803100,1.770074,0.806909,0.385754,-0.004250,0.400000,0.299200,0.663579,0.000000,0.009285,0.000000,0.029585,0.000000,-0.004552,0.663410,0.663911,0.663764,0.663232,-0.045014,0.000000,0.033234,38,0.000293,0.000000,0.000000,0.000000,0.000000,0.000000,-0.000081,-0.000258,0.000008,0.003579
296,946684903.560974,11,0.095034,0.017628,-9.879741,-0.610370,0.013428,-1.628468,-0.004250,0.400000,0.299200,0.663584,0.000000,0.011647,0.000000,0.026897,0.000000,-0.012753,0.663474,0.663899,0.663740,0.663226,-0.045014,0.000000,0.033234,38,0.000066,0.000000,0.000000,0.000000,0.000000,0.000000,-0.000102,-0.000235,0.000022,0.003584
297,946684903.565979,11,0.018393,-0.059012,-9.803100,0.122074,1.600391,0.507828,-0.004250,0.400000,0.299200,0.663589,0.000000,0.020018,0.000000,0.025968,0.000000,-0.010211,0.663555,0.663973,0.663659,0.663170,0.000000,0.000000,0.032745,39,0.000066,0.000000,0.000000,0.000000,0.000000,0.000000,-0.000175,-0.000227,0.000018,0.003589
298,946684903.571014,11,-0.134888,-0.135653,-9.879741,-1.037629,0.867946,-3.642689,-0.004250,0.400000,0.299200,0.663595,0.000000,0.020882,0.000000,0.017307,0.000000,-0.028552,0.663676,0.663878,0.663613,0.663211,0.000000,0.000000,0.032745,39,0.000066,0.000000,0.000000,0.000000,0.000000,0.000000,-0.000182,-0.000151,0.000050,0.003595
299,946684903.575988,11,0.095034,0.017628,-9.803100,0.854518,-3.831904,2.338939,-0.004250,0.400000,0.299200,0.663600,0.000000,0.004201,0.000000,0.021955,0.000000,-0.016919,0.663474,0.663798,0.663784,0.663342,0.000000,0.000000,0.032745,39,0.000066,0.000000,0.000000,0.000000,0.000000,0.000000,-0.000037,-0.000192,0.000030,0.003600
300,946684903.581146,11,-0.058248,-0.135653,-9.803100,1.037629,4.041872,6.855678,0.000000,0.400000,0.299540,0.663595,0.000000,0.023430,0.000000,0.023768,0.000000,0.018443,0.663559,0.664039,0.663565,0.663215,0.000000,0.000000,0.032745,39,0.000066,0.000000,0.000000,0.000000,0.000000,0.000000,-0.000204,-0.000207,-0.000032,0.003595
301,946684903.586090,11,-0.058248,-0.059012,-9.879741,-2.136296,-0.108646,-6.389355,0.000000,0.400000,0.299540,0.663599,0.000000,0.021283,0.000000,0.011675,0.000000,-0.013146,0.663706,0.663864,0.663539,0.663289,0.000000,0.000000,0.032745,39,0.000066,0.000000,0.000000,0.000000,0.000000,0.000000,-0.000186,-0.000102,0.000023,0.003599
302,946684903.591064,11,0.095034,0.247550,-9.803100,1.098666,-3.221534,4.047975,0.000000,0.400000,0.299540,0.663604,0.000000,0.007656,0.000000,0.023474,0.000000,0.006989,0.663454,0.663888,0.663730,0.663345,0.000000,0.000000,0.032745,39,0.000066,0.000000,0.000000,0.000000,0.000000,0.000000,-0.000067,-0.000205,-0.000012,0.003604
303,946684903.596069,11,-0.058248,-0.212294,-9.803100,1.220740,2.454909,1.545457,0.000000,0.400000,0.299540,0.663610,0.000000,0.018321,0.000000,0.023999,0.000000,0.014724,0.663534,0.664005,0.663633,0.663266,0.000000,0.000000,0.032745,39,0.000066,0.000000,0.000000,0.000000,0.000000,0.000000,-0.000160,-0.000209,-0.000026,0.003609
304,946684903.601104,11,0.018393,0.017628,-9.803100,-1.831111,-0.780053,-9.074984,0.000000,0.400000,0.299540,0.663615,0.000000,0.014779,0.000000,0.015200,0.000000,-0.030969,0.663665,0.663822,0.663672,0.663299,-0.228684,-0.091474,0.032746,40,-0.001085,-0.000461,0.000000,0.000000,0.000000,0.000000,-0.000129,-0.000133,0.000054,0.003615
305,946684903.606109,11,-0.134888,-0.059012,-9.879741,0.915555,1.356243,3.132420,0.000000,0.400000,0.299540,0.663620,0.000000,0.017940,0.000000,0.018190,0.000000,-0.015292,0.663644,0.663908,0.663648,0.663278,-0.228684,-0.091474,0.032746,40,-0.002230,-0.000918,0.000000,0.000000,0.000000,0.000000,-0.000157,-0.000159,0.000027,0.003620
306,946684903.611145,11,-0.058248,-0.059012,-9.803100,0.732444,1.234168,0.568865,0.000000,0.400000,0.299540,0.663625,0.000000,0.022472,0.000000,0.020250,0.000000,-0.012427,0.663666,0.663976,0.663627,0.663230,-0.228684,-0.091474,0.032746,40,-0.003382,-0.001379,0.000000,0.000000,0.000000,0.000000,-0.000196,-0.000177,0.000022,0.003625
307,946684903.616149,11,0.018393,-0.059012,-9.803100,-1.281777,-2.183905,0.141606,0.000000,0.400000,0.299540,0.663630,0.000000,0.011931,0.000000,0.012230,0.000000,-0.011718,0.663648,0.663820,0.663653,0.663398,-0.228684,-0.091474,0.032746,40,-0.004526,-0.001837,0.000000,0.000000,0.000000,0.000000,-0.000104,-0.000107,0.000020,0.003630
308,946684903.621276,11,-0.058248,-0.059012,-9.879741,0.366222,1.539354,0.629902,0.000001,0.400000,0.299200,0.663645,0.000000,0.018151,0.000000,0.012499,0.000000,-0.008489,0.663709,0.663898,0.663611,0.663363,-0.228424,-0.091370,0.032746,40,-0.005697,-0.002305,0.000000,0.000000,0.000000,0.000000,-0.000158,-0.000109,0.000015,0.003645
309,946684903.626220,11,0.095034,0.017628,-9.879741,1.220740,-0.657979,3.620716,0.000001,0.400000,0.299200,0.663650,0.000000,0.017295,0.000000,0.018920,0.000000,0.009412,0.663619,0.663983,0.663648,0.663350,-0.228424,-0.091370,0.032746,40,-0.006826,-0.002757,0.000000,0.000000,0.000000,0.000000,-0.000151,-0.000165,-0.000016,0.003650
310,946684903.631195,11,0.018393,-0.212294,-9.803100,-1.098666,1.112094,-1.628468,0.000001,0.400000,0.299200,0.663655,0.000000,0.023173,0.000000,0.007708,0.000000,0.001310,0.663788,0.663927,0.663518,0.663388,0.000000,0.000000,0.032104,41,-0.006826,-0.002757,0.000000,0.000000,0.000000,0.000000,-0.000202,-0.000067,-0.000002,0.003655
311,946684903.636199,11,-0.134888,-0.059012,-9.879741,1.098666,0.990020,-0.834986,0.000001,0.400000,0.299200,0.663660,0.000000,0.024353,0.000000,0.011552,0.000000,-0.002868,0.663777,0.663968,0.663553,0.663342,0.000000,0.000000,0.032104,41,-0.006826,-0.002757,0.000000,0.000000,0.000000,0.000000,-0.000213,-0.000101,0.000005,0.003660
312,946684903.641235,11,0.018393,-0.059012,-9.803100,0.305185,-1.939756,-1.201209,0.000001,0.400000,0.299200,0.663665,0.000000,0.014958,0.000000,0.011408,0.000000,-0.008917,0.663712,0.663880,0.663650,0.663420,0.000000,0.000000,0.032104,41,-0.006826,-0.002757,0.000000,0.000000,0.000000,0.000000,-0.000131,-0.000100,0.000016,0.003665
313,946684903.646240,11,-0.058248,-0.135653,-9.803100,-0.061037,1.783502,-2.788171,0.000001,0.400000,0.299200,0.663670,0.000000,0.022137,0.000000,0.007336,0.000000,-0.022872,0.663839,0.663888,0.663581,0.663373,0.000000,0.000000,0.032104,41,-0.006826,-0.002757,0.000000,0.000000,0.000000,0.000000,-0.000193,-0.000064,0.000040,0.003670
314,946684903.651275,11,0.018393,-0.059012,-9.879741,0.000000,-0.047609,2.216865,0.000001,0.400000,0.299200,0.663675,0.000000,0.022232,0.000000,0.005659,0.000000,-0.011710,0.663840,0.663898,0.663551,0.663411,0.000000,0.000000,0.032104,41,-0.006826,-0.002757,0.000000,0.000000,0.000000,0.000000,-0.000194,-0.000049,0.000020,0.003675
315,946684903.656280,11,0.018393,-0.059012,-9.803100,-0.732444,-1.329386,0.507828,0.000001,0.400000,0.299200,0.663680,0.000000,0.015951,0.000000,0.000316,0.000000,-0.009168,0.663833,0.663806,0.663560,0.663522,0.000000,0.000000,0.032104,41,-0.006826,-0.002757,0.000000,0.000000,0.000000,0.000000,-0.000139,-0.000003,0.000016,0.003680
316,946684903.661437,11,-0.058248,-0.059012,-9.879741,0.732444,2.454909,-0.957061,0.000000,0.400000,0.299540,0.663675,0.000000,0.026825,0.000000,0.002403,0.000000,-0.014104,0.663913,0.663906,0.663487,0.663396,0.000000,0.000000,0.032104,41,-0.006826,-0.002757,0.000000,0.000000,0.000000,0.000000,-0.000234,-0.000021,0.000025,0.003675
317,946684903.666351,11,0.095034,-0.059012,-9.803100,0.244148,-2.733238,4.109012,0.000000,0.400000,0.299540,0.663680,0.000000,0.015898,0.000000,0.001892,0.000000,0.006088,0.663792,0.663846,0.663547,0.663536,0.000000,0.000000,0.032715,42,-0.006826,-0.002757,0.000000,0.000000,0.000000,0.000000,-0.000139,-0.000017,-0.000011,0.003680
318,946684903.671325,11,0.018393,-0.059012,-9.803100,-1.709037,0.990020,-5.290689,0.000000,0.400000,0.299540,0.663685,0.000000,0.021181,0.000000,-0.008285,0.000000,-0.020228,0.663978,0.663763,0.663463,0.663537,0.000000,0.000000,0.032715,42,-0.006826,-0.002757,0.000000,0.000000,0.000000,0.000000,-0.000185,0.000072,0.000035,0.003685
319,946684903.676361,11,-0.058248,-0.135653,-9.879741,1.892148,0.806909,-1.140172,0.000000,0.400000,0.299540,0.663690,0.000000,0.023458,0.000000,-0.002593,0.000000,-0.025970,0.663963,0.663827,0.663508,0.663463,0.000000,0.000000,0.032715,42,-0.006826,-0.002757,0.000000,0.000000,0.000000,0.000000,-0.000205,0.000023,0.000045,0.003690
320,946684903.681396,11,0.018393,-0.059012,-9.803100,0.244148,-1.390423,2.216865,0.000000,0.400000,0.299540,0.663695,0.000000,0.016835,0.000000,-0.003101,0.000000,-0.014808,0.663895,0.663789,0.663547,0.663550,0.000000,0.000000,0.032715,42,-0.006826,-0.002757,0.000000,0.000000,0.000000,0.000000,-0.000147,0.000027,0.000026,0.003695
321,946684903.686370,11,-0.058248,-0.059012,-9.879741,-0.854518,1.173131,-0.468764,0.000000,0.400000,0.299540,0.663700,0.000000,0.020877,0.000000,-0.009058,0.000000,-0.017140,0.663992,0.663774,0.663469,0.663567,0.000000,0.000000,0.032715,42,-0.006826,-0.002757,0.000000,0.000000,0.000000,0.000000,-0.000182,0.000079,0.000030,0.003700
322,946684903.691406,11,0.018393,-0.135653,-9.879741,0.549333,0.257576,0.446791,0.000000,0.400000,0.299540,0.663705,0.000000,0.022518,0.000000,-0.010168,0.000000,-0.014890,0.664017,0.663787,0.663446,0.663572,0.000000,0.000000,0.032715,42,-0.006826,-0.002757,0.000000,0.000000,0.000000,0.000000,-0.000197,0.000089,0.000026,0.003705
323,946684903.696411,11,-0.058248,0.017628,-9.803100,-0.061037,-0.719016,1.423383,0.000000,0.400000,0.299540,0.663710,0.000000,0.017112,0.000000,-0.010037,0.000000,-0.007766,0.663961,0.663759,0.663487,0.663635,0.000000,0.000000,0.031952,43,-0.006826,-0.002757,0.000000,0.000000,0.000000,0.000000,-0.000149,0.000088,0.000014,0.003710
324,946684903.701538,11,0.018393,-0.135653,-9.879741,-0.427259,-0.047609,2.399976,0.000001,0.400000,0.299200,0.663726,0.000000,0.017236,0.000000,-0.016122,0.000000,0.004539,0.664009,0.663743,0.663427,0.663724,0.000000,0.000000,0.031952,43,-0.006826,-0.002757,0.000000,0.000000,0.000000,0.000000,-0.000150,0.000141,-0.000008,0.003726
325,946684903.706481,11,0.018393,-0.059012,-9.803100,-0.549333,0.562761,-4.375134,0.000001,0.400000,0.299200,0.663731,0.000000,0.020379,0.000000,-0.020560,0.000000,-0.017088,0.664118,0.663699,0.663403,0.663703,0.000000,0.000000,0.031952,43,-0.006826,-0.002757,0.000000,0.000000,0.000000,0.000000,-0.000178,0.000179,0.000030,0.003731
326,946684903.711486,11,0.018393,0.094269,-9.879741,1.098666,-0.657979,-0.773949,0.000001,0.400000,0.299200,0.663736,0.000000,0.017461,0.000000,-0.012432,0.000000,-0.020961,0.664033,0.663743,0.663512,0.663655,0.000000,0.000000,0.031952,43,-0.006826,-0.002757,0.000000,0.000000,0.000000,0.000000,-0.000152,0.000108,0.000037,0.003736
327,946684903.716461,11,0.018393,-0.135653,-9.803100,0.549333,0.867946,1.545457,0.000001,0.400000,0.299200,0.663741,0.000000,0.022139,0.000000,-0.013688,0.000000,-0.013273,0.664077,0.663791,0.663451,0.663644,0.000000,0.000000,0.031952,43,-0.006826,-0.002757,0.000000,0.000000,0.000000,0.000000,-0.000193,0.000119,0.000023,0.003741
328,946684903.721527,11,0.018393,-0.059012,-9.879741,-1.281777,0.135502,-1.689505,0.000001,0.400000,0.299200,0.663746,0.000000,0.023178,0.000000,-0.021917,0.000000,-0.021832,0.664178,0.663719,0.663391,0.663697,0.000000,0.000000,0.031952,43,-0.006826,-0.002757,0.000000,0.000000,0.000000,0.000000,-0.000202,0.000191,0.000038,0.003746
329,946684903.726501,11,-0.058248,0.017628,-9.879741,0.488296,0.135502,2.277902,0.000001,0.400000,0.299200,0.663751,0.000000,0.021991,0.000000,-0.019025,0.000000,-0.010501,0.664127,0.663759,0.663411,0.663707,0.000000,0.000000,0.031708,44,-0.006826,-0.002757,0.000000,0.000000,0.000000,0.000000,-0.000192,0.000166,0.000018,0.003751
330,946684903.731567,11,0.018393,-0.059012,-9.803100,1.159703,-0.719016,3.864864,0.000001,0.400000,0.299200,0.663756,0.000000,0.018726,0.000000,-0.014951,0.000000,0.009078,0.664034,0.663805,0.663446,0.663739,0.000000,0.000000,0.031708,44,-0.006826,-0.002757,0.000000,0.000000,0.000000,0.000000,-0.000163,0.000130,-0.000016,0.003756
331,946684903.736541,11,0.018393,0.017628,-9.803100,-1.770074,0.623798,-2.238838,0.000001,0.400000,0.299200,0.663761,0.000000,0.022193,0.000000,-0.023266,0.000000,-0.002058,0.664161,0.663748,0.663368,0.663767,0.000000,0.000000,0.031708,44,-0.006826,-0.002757,0.000000,0.000000,0.000000,0.000000,-0.000194,0.000203,0.000004,0.003761
332,946684903.741912,11,0.018393,0.017628,-9.879741,0.671407,-0.169683,0.446791,0.000000,0.400000,0.299540,0.663756,0.000000,0.021643,0.000000,-0.019201,0.000000,0.000342,0.664112,0.663778,0.663399,0.663736,0.000000,0.000000,0.031708,44,-0.006826,-0.002757,0.000000,0.000000,0.000000,0.000000,-0.000189,0.000168,-0.000001,0.003756
333,946684903.746612,11,0.018393,-0.059012,-9.879741,0.793481,0.684835,-2.238838,0.000000,0.400000,0.299540,0.663761,0.000000,0.025217,0.000000,-0.017258,0.000000,-0.010181,0.664149,0.663813,0.663408,0.663674,0.000000,0.000000,0.031708,44,-0.006826,-0.002757,0.000000,0.000000,0.000000,0.000000,-0.000220,0.000151,0.000018,0.003761
334,946684903.751617,11,-0.058248,-0.135653,-9.879741,-1.037629,0.135502,-1.750542,0.000000,0.400000,0.299540,0.663766,0.000000,0.023988,0.000000,-0.026479,0.000000,-0.018942,0.664240,0.663711,0.663359,0.663755,0.000000,0.000000,0.031708,44,-0.006826,-0.002757,0.000000,0.000000,0.000000,0.000000,-0.000209,0.000231,0.000033,0.003766
335,946684903.756622,11,-0.058248,-0.059012,-9.879741,0.793481,-0.596942,-0.163579,0.000000,0.400000,0.299540,0.663771,0.000000,0.019104,0.000000,-0.024300,0.000000,-0.019761,0.664184,0.663691,0.663427,0.663782,0.000000,0.000000,0.031708,44,-0.006826,-0.002757,0.000000,0.000000,0.000000,0.000000,-0.000167,0.000212,0.000034,0.003771
336,946684903.761657,11,0.018393,0.017628,-9.879741,0.000000,0.684835,1.606494,0.000000,0.400000,0.299540,0.663776,0.000000,0.022907,0.000000,-0.023824,0.000000,-0.011672,0.664204,0.663748,0.663389,0.663764,0.000000,0.000000,0.033447,45,-0.006826,-0.002757,0.000000,0.000000,0.000000,0.000000,-0.000200,0.000208,0.000020,0.003776
337,946684903.766632,11,0.018393,-0.135653,-9.879741,-0.427259,-0.047609,2.277902,0.000000,0.400000,0.299540,0.663781,0.000000,0.023029,0.000000,-0.030020,0.000000,-0.000339,0.664245,0.663720,0.663319,0.663842,0.000000,0.000000,0.033447,45,-0.006826,-0.002757,0.000000,0.000000,0.000000,0.000000,-0.000201,0.000262,0.000001,0.003781
338,946684903.771667,11,0.018393,-0.059012,-9.879741,0.000000,-0.291757,0.141606,0.000000,0.400000,0.299540,0.663786,0.000000,0.021926,0.000000,-0.031812,0.000000,0.000374,0.664254,0.663701,0.663317,0.663873,0.000000,0.000000,0.033447,45,-0.006826,-0.002757,0.000000,0.000000,0.000000,0.000000,-0.000191,0.000278,-0.000001,0.003786
339,946684903.776672,11,0.018393,0.017628,-9.803100,-0.122074,1.112094,0.019532,0.000000,0.400000,0.299540,0.663791,0.000000,0.027836,0.000000,-0.031910,0.000000,0.000471,0.664312,0.663756,0.663269,0.663828,0.000000,0.000000,0.033447,45,-0.006826,-0.002757,0.000000,0.000000,0.000000,0.000000,-0.000243,0.000278,-0.000001,0.003791
340,946684903.782073,11,0.018393,-0.059012,-9.803100,0.305185,0.074465,-0.468764,0.000001,0.400000,0.299200,0.663807,0.000000,0.028576,0.000000,-0.032095,0.000000,-0.002061,0.664340,0.663773,0.663281,0.663834,0.000000,0.000000,0.033447,45,-0.006826,-0.002757,0.000000,0.000000,0.000000,0.000000,-0.000249,0.000280,0.000004,0.003807
341,946684903.786804,11,0.018393,-0.059012,-9.803100,-0.427259,-0.841090,-2.299875,0.000001,0.400000,0.299200,0.663812,0.000000,0.024966,0.000000,-0.035916,0.000000,-0.012941,0.664365,0.663693,0.663303,0.663885,0.000000,0.000000,0.033447,45,-0.006826,-0.002757,0.000000,0.000000,0.000000,0.000000,-0.000218,0.000313,0.000023,0.003812
342,946684903.791778,11,0.018393,-0.059012,-9.879741,0.549333,0.806909,0.080569,0.000001,0.400000,0.299200,0.663817,0.000000,0.029321,0.000000,-0.034996,0.000000,-0.012540,0.664400,0.663745,0.663277,0.663844,0.000000,0.000000,0.031830,46,-0.006826,-0.002757,0.000000,0.000000,0.000000,0.000000,-0.000256,0.000305,0.000022,0.003817
343,946684903.796783,11,0.018393,-0.059012,-9.879741,0.061037,-1.207312,0.813013,0.000001,0.400000,0.299200,0.663822,0.000000,0.023652,0.000000,-0.036507,0.000000,-0.008471,0.664361,0.663695,0.663311,0.663919,0.000000,0.000000,0.031830,46,-0.006826,-0.002757,0.000000,0.000000,0.000000,0.000000,-0.000206,0.000319,0.000015,0.003822
344,946684903.801818,11,0.018393,0.017628,-9.879741,-0.732444,1.051057,-1.140172,0.000001,0.400000,0.299200,0.663827,0.000000,0.029291,0.000000,-0.039655,0.000000,-0.014212,0.664453,0.663711,0.663250,0.663892,0.000000,0.000000,0.031830,46,-0.006826,-0.002757,0.000000,0.000000,0.000000,0.000000,-0.000256,0.000346,0.000025,0.003827
345,946684903.806884,11,-0.058248,0.017628,-9.803100,0.732444,-0.291757,3.071383,0.000001,0.400000,0.299200,0.663832,0.000000,0.025805,0.000000,-0.035419,0.000000,0.001348,0.664364,0.663750,0.663295,0.663918,0.000000,0.000000,0.031830,46,-0.006826,-0.002757,0.000000,0.000000,0.000000,0.000000,-0.000225,0.000309,-0.000002,0.003832
346,946684903.811859,11,0.018393,-0.059012,-9.803100,0.061037,-0.841090,-0.407727,0.000001,0.400000,0.299200,0.663837,0.000000,0.022009,0.000000,-0.036960,0.000000,-0.000681,0.664353,0.663705,0.663324,0.663966,0.000000,0.000000,0.031830,46,-0.006826,-0.002757,0.000000,0.000000,0.000000,0.000000,-0.000192,0.000323,0.000001,0.003837
347,946684903.816864,11,0.018393,-0.059012,-9.879741,0.000000,0.806909,-0.834986,0.000001,0.400000,0.299200,0.663842,0.000000,0.026410,0.000000,-0.038794,0.000000,-0.004860,0.664419,0.663725,0.663281,0.663942,0.000000,0.000000,0.031830,46,-0.006826,-0.002757,0.000000,0.000000,0.000000,0.000000,-0.000230,0.000339,0.000008,0.003842
348,946684903.821960,11,0.018393,-0.059012,-9.803100,-0.610370,0.135502,-0.224616,-0.004250,0.400000,0.299200,0.663847,0.000000,0.027464,0.000000,-0.043741,0.000000,-0.006004,0.664479,0.663695,0.663236,0.663979,0.000000,0.000000,0.031830,46,-0.006826,-0.002757,0.000000,0.000000,0.000000,0.000000,-0.000240,0.000382,0.000010,0.003847
349,946684903.826873,11,0.018393,-0.059012,-9.879741,0.366222,-0.230720,-0.224616,-0.004250,0.400000,0.299200,0.663852,0.000000,0.026699,0.000000,-0.043768,0.000000,-0.007108,0.664479,0.663691,0.663249,0.663989,0.000000,0.000000,0.032867,47,-0.006826,-0.002757,0.000000,0.000000,0.000000,0.000000,-0.000233,0.000382,0.000012,0.003852
350,946684903.831878,11,0.018393,-0.135653,-9.803100,0.122074,0.257576,-0.590838,-0.004250,0.400000,0.299200,0.663857,0.000000,0.028354,0.000000,-0.047413,0.000000,-0.010065,0.664536,0.663673,0.663213,0.664006,0.000000,0.000000,0.032867,47,-0.006826,-0.002757,0.000000,0.000000,0.000000,0.000000,-0.000247,0.000414,0.000018,0.003857
351,946684903.836883,11,0.018393,0.017628,-9.803100,-0.610370,-0.535905,-0.529801,-0.004250,0.400000,0.299200,0.663862,0.000000,0.026054,0.000000,-0.049883,0.000000,-0.012717,0.664547,0.663632,0.663222,0.664048,0.000000,0.000000,0.032867,47,-0.006826,-0.002757,0.000000,0.000000,0.000000,0.000000,-0.000227,0.000435,0.000022,0.003862
352,946684903.841918,11,0.018393,-0.059012,-9.803100,1.037629,-0.291757,1.911679,-0.004250,0.400000,0.299200,0.663867,0.000000,0.024975,0.000000,-0.046523,0.000000,-0.003091,0.664497,0.663674,0.663249,0.664050,0.000000,0.000000,0.032867,47,-0.006826,-0.002757,0.000000,0.000000,0.000000,0.000000,-0.000218,0.000406,0.000005,0.003867
353,946684903.846923,11,0.018393,-0.135653,-9.803100,-0.610370,0.867946,-1.567431,-0.004250,0.400000,0.299200,0.663872,0.000000,0.029687,0.000000,-0.053857,0.000000,-0.010936,0.664620,0.663642,0.663162,0.664064,0.000000,0.000000,0.032867,47,-0.006826,-0.002757,0.000000,0.000000,0.000000,0.000000,-0.000259,0.000470,0.000019,0.003872
354,946684903.851959,11,0.095034,0.017628,-9.803100,-0.244148,-0.780053,0.568865,-0.004250,0.400000,0.299200,0.663877,0.000000,0.028587,0.000000,-0.054487,0.000000,-0.008072,0.664616,0.663637,0.663166,0.664089,0.000000,0.000000,0.032867,47,-0.006826,-0.002757,0.000000,0.000000,0.000000,0.000000,-0.000249,0.000475,0.000014,0.003877
355,946684903.856933,11,0.018393,-0.059012,-9.803100,0.488296,0.196539,0.751976,-0.004250,0.400000,0.299200,0.663882,0.000000,0.029946,0.000000,-0.053913,0.000000,-0.004331,0.664622,0.663666,0.663158,0.664084,0.000000,0.000000,0.031677,48,-0.006826,-0.002757,0.000000,0.000000,0.000000,0.000000,-0.000261,0.000470,0.000008,0.003882
356,946684903.862091,11,0.018393,0.017628,-9.803100,-0.305185,0.257576,-0.285653,0.004250,0.400000,0.299540,0.663877,0.000000,0.031648,0.000000,-0.054888,0.000000,-0.005805,0.664643,0.663664,0.663132,0.664070,0.000000,0.000000,0.031677,48,-0.006826,-0.002757,0.000000,0.000000,0.000000,0.000000,-0.000276,0.000479,0.000010,0.003877
357,946684903.867004,11,0.095034,-0.059012,-9.803100,-0.122074,-0.963164,0.019532,0.004250,0.400000,0.299540,0.663882,0.000000,0.029781,0.000000,-0.057334,0.000000,-0.005709,0.664652,0.663632,0.663132,0.664113,0.000000,0.000000,0.031677,48,-0.006826,-0.002757,0.000000,0.000000,0.000000,0.000000,-0.000260,0.000500,0.000010,0.003882
358,946684903.872039,11,0.018393,-0.059012,-9.803100,0.366222,0.501724,-0.407727,0.004250,0.400000,0.299540,0.663887,0.000000,0.032691,0.000000,-0.057353,0.000000,-0.007762,0.664687,0.663659,0.663115,0.664089,0.000000,0.000000,0.031677,48,-0.006826,-0.002757,0.000000,0.000000,0.000000,0.000000,-0.000285,0.000500,0.000014,0.003887
359,946684903.877014,11,0.018393,-0.059012,-9.803100,0.061037,-0.902127,0.690939,0.004250,0.400000,0.299540,0.663892,0.000000,0.028612,0.000000,-0.058910,0.000000,-0.004324,0.664664,0.663620,0.663136,0.664149,0.000000,0.000000,0.031677,48,-0.006826,-0.002757,0.000000,0.000000,0.000000,0.000000,-0.000250,0.000514,0.000008,0.003892
360,946684903.882049,11,0.018393,-0.059012,-9.803100,-0.915555,-0.047609,-0.285653,0.004250,0.400000,0.299540,0.663897,0.000000,0.028784,0.000000,-0.065360,0.000000,-0.005762,0.664729,0.663568,0.663086,0.664206,0.000000,0.000000,0.031677,48,-0.006826,-0.002757,0.000000,0.000000,0.000000,0.000000,-0.000251,0.000570,0.000010,0.003897
361,946684903.887054,11,0.018393,0.017628,-9.803100,0.549333,-0.230720,-0.834986,0.004250,0.400000,0.299540,0.663902,0.000000,0.028047,0.000000,-0.061971,0.000000,-0.009941,0.664705,0.663589,0.663134,0.664181,0.000000,0.000000,0.031677,48,-0.006826,-0.002757,0.000000,0.000000,0.000000,0.000000,-0.000245,0.000541,0.000017,0.003902
362,946684903.892150,11,0.095034,-0.059012,-9.803100,0.854518,-0.108646,-0.224616,0.004250,0.400000,0.299540,0.663908,0.000000,0.030416,0.000000,-0.059504,0.000000,-0.011086,0.664712,0.663634,0.663142,0.664142,0.000000,0.000000,0.032532,49,-0.006826,-0.002757,0.000000,0.000000,0.000000,0.000000,-0.000265,0.000519,0.000019,0.003907
363,946684903.897064,11,0.018393,0.017628,-9.803100,-1.403851,0.867946,-0.102542,0.004250,0.400000,0.299540,0.663912,0.000000,0.035075,0.000000,-0.065734,0.000000,-0.011590,0.664812,0.663625,0.663053,0.664160,0.000000,0.000000,0.032532,49,-0.006826,-0.002757,0.000000,0.000000,0.000000,0.000000,-0.000306,0.000574,0.000020,0.003912
364,946684903.902221,11,0.018393,-0.059012,-9.879741,0.549333,-1.085238,1.362346,0.008500,0.400000,0.299880,0.663907,0.000000,0.029900,0.000000,-0.064760,0.000000,-0.004564,0.664741,0.663595,0.663089,0.664204,0.000000,0.000000,0.032532,49,-0.006826,-0.002757,0.000000,0.000000,0.000000,0.000000,-0.000261,0.000565,0.000008,0.003907
